local_time,arrival_time_monotonic,timestamp_us,role,role_label,mac_address,quat_w,quat_x,quat_y,quat_z,euler_x,euler_y,euler_z,acc_x,acc_y,acc_z,gyro_x,gyro_y,gyro_z
2026-04-02 12:56:38.370,1539.375477998,182565056,left_foot,左脚,D4:22:CD:00:84:61,0.7625041604042053,0.20221549272537231,-0.36087068915367126,0.4974623918533325,-4.404052986792835,-48.72220573941353,68.2362956609955,0.0,0.0,0.0,0.0,0.0,0.0
2026-04-02 12:56:38.400,1539.405262924,182581723,left_foot,左脚,D4:22:CD:00:84:61,0.7624191045761108,0.20223189890384674,-0.36094731092453003,0.49753043055534363,-4.416548677320951,-48.73083389283619,68.25538357933819,7.143870830535889,-0.4878518879413605,6.25183629989624,0.027597682550549507,-0.16999147832393646,0.22339396178722382
2026-04-02 12:56:38.430,1539.43554278,182615057,left_foot,左脚,D4:22:CD:00:84:61,0.7621461749076843,0.20234708487987518,-0.3609395921230316,0.49790722131729126,-4.434345369100555,-48.73589907289687,68.32218305384755,7.1491618156433105,-0.4830043315887451,6.2791619300842285,0.05263729766011238,-0.24764278531074524,0.21200591325759888
2026-04-02 12:56:38.460,1539.465480445,182648391,left_foot,左脚,D4:22:CD:00:84:61,0.7620890736579895,0.20232488214969635,-0.3608606159687042,0.4980607330799103,-4.441175314348318,-48.72534631032474,68.3448944730077,7.15122652053833,-0.4871065318584442,6.266232013702393,0.11915989220142365,-0.1399478018283844,0.2134530395269394
2026-04-02 12:56:38.490,1539.4956157,182681725,left_foot,左脚,D4:22:CD:00:84:61,0.7620086073875427,0.20235130190849304,-0.36085087060928345,0.49818041920661926,-4.447194946042713,-48.725488400829434,68.36578157173709,7.149440765380859,-0.4850105941295624,6.267004489898682,0.06621203571557999,-0.19270996749401093,0.18969087302684784
2026-04-02 12:56:38.520,1539.525424816,182715059,left_foot,左脚,D4:22:CD:00:84:61,0.7619697451591492,0.20236238837242126,-0.3608255982398987,0.4982534945011139,-4.44929567397836,-48.72324608774759,68.37700425636706,7.1428608894348145,-0.47853049635887146,6.271814823150635,0.09612766653299332,-0.1688133031129837,0.18712957203388214
2026-04-02 12:56:38.551,1539.556684206,182748393,left_foot,左脚,D4:22:CD:00:84:61,0.7619831562042236,0.20235039293766022,-0.3608475625514984,0.49822208285331726,-4.45048820485473,-48.72484288126075,68.37338675025343,7.1490888595581055,-0.4809533953666687,6.256521224975586,0.1269589513540268,-0.27335792779922485,0.21965129673480988
2026-04-02 12:56:38.580,1539.585397097,182781727,left_foot,左脚,D4:22:CD:00:84:61,0.7618964314460754,0.20237980782985687,-0.3608754277229309,0.49832242727279663,-4.458755053528302,-48.729177633208515,68.39388313830462,7.150286674499512,-0.4872421622276306,6.269842147827148,-0.0015751809114590287,-0.2698489725589752,0.26549798250198364
2026-04-02 12:56:38.641,1539.646627196,182815061,left_foot,左脚,D4:22:CD:00:84:61,0.7619084715843201,0.20236116647720337,-0.36091870069503784,0.49828022718429565,-4.462210145877095,-48.73256427265685,68.39033373517637,7.157868385314941,-0.48609596490859985,6.253138065338135,0.051286231726408005,-0.20039376616477966,0.18452349305152893
2026-04-02 12:56:38.670,1539.67567104,182848395,left_foot,左脚,D4:22:CD:00:84:61,0.7619746327400208,0.2023056149482727,-0.3609951138496399,0.49814608693122864,-4.465873555929194,-48.73731519922151,68.37352867700962,7.147852897644043,-0.4755944311618805,6.249535083770752,0.11845552921295166,-0.19926679134368896,0.23857906460762024
2026-04-02 12:56:38.701,1539.706356917,182881729,left_foot,左脚,D4:22:CD:00:84:61,0.7618094086647034,0.20242100954055786,-0.36098483204841614,0.4983596205711365,-4.469430904917577,-48.74306946549448,68.40929113138522,7.152299880981445,-0.4733220636844635,6.260051250457764,0.09917556494474411,-0.20877552032470703,0.25139185786247253
2026-04-02 12:56:38.731,1539.73639351,182915063,left_foot,左脚,D4:22:CD:00:84:61,0.7617565989494324,0.2024524211883545,-0.36098432540893555,0.4984278380870819,-4.471527997967823,-48.74481703886908,68.4211498085701,7.156905651092529,-0.4865324795246124,6.261081218719482,0.1459827870130539,-0.08882484585046768,0.27414876222610474
2026-04-02 12:56:38.760,1539.765658662,182948397,left_foot,左脚,D4:22:CD:00:84:61,0.7617034316062927,0.20247237384319305,-0.36100444197654724,0.4984862506389618,-4.476457874898858,-48.74793876950713,68.43335031509343,7.154612064361572,-0.4887066185474396,6.264966011047363,0.08079205453395844,-0.13552318513393402,0.266266405582428
2026-04-02 12:56:38.791,1539.796607962,182981731,left_foot,左脚,D4:22:CD:00:84:61,0.7616018652915955,0.20254935324192047,-0.36099928617477417,0.4986138939857483,-4.477773839620425,-48.75204556227265,68.45458684767695,7.143865585327148,-0.4789489209651947,6.259975433349609,0.16659462451934814,-0.16636089980602264,0.23303396999835968
2026-04-02 12:56:38.820,1539.82530491,183015065,left_foot,左脚,D4:22:CD:00:84:61,0.7615290880203247,0.20259520411491394,-0.36103150248527527,0.49868306517601013,-4.481956819683795,-48.758154613145635,68.46907606283129,7.1492838859558105,-0.4885793626308441,6.278707027435303,0.07011796534061432,-0.23830698430538177,0.2197345644235611
2026-04-02 12:56:38.850,1539.855726091,183048399,left_foot,左脚,D4:22:CD:00:84:61,0.7615067362785339,0.20260995626449585,-0.36107322573661804,0.49868106842041016,-4.4847657638406115,-48.763478742020254,68.47193300848387,7.151682376861572,-0.4972326159477234,6.252899169921875,0.05380907654762268,-0.22005149722099304,0.15284056961536407
2026-04-02 12:56:38.880,1539.885169634,183081733,left_foot,左脚,D4:22:CD:00:84:61,0.7614254951477051,0.2026272863149643,-0.3611198365688324,0.49876439571380615,-4.495128761299438,-48.76898206507278,68.49127494471233,7.155046463012695,-0.4947289526462555,6.262600421905518,0.03662296012043953,-0.2303798496723175,0.3216218650341034
2026-04-02 12:56:38.940,1539.945621371,183115067,left_foot,左脚,D4:22:CD:00:84:61,0.7613611817359924,0.20266486704349518,-0.36114758253097534,0.498827189207077,-4.499238637576879,-48.77409005469797,68.50443152355945,7.1328444480896,-0.4929511249065399,6.249789237976074,0.10219146311283112,-0.209511861205101,0.20450778305530548
2026-04-02 12:56:38.970,1539.975648827,183148401,left_foot,左脚,D4:22:CD:00:84:61,0.7613505721092224,0.2026466727256775,-0.36120325326919556,0.4988104999065399,-4.506229694008562,-48.77862548305831,68.50679435003731,7.15430212020874,-0.48654693365097046,6.25684118270874,0.059360627084970474,-0.19524560868740082,0.24105072021484375
2026-04-02 12:56:39.000,1540.005548772,183181735,left_foot,左脚,D4:22:CD:00:84:61,0.7612413167953491,0.20272541046142578,-0.36118701100349426,0.49895697832107544,-4.507720218593871,-48.78160753915441,68.53057608362407,7.149927139282227,-0.4872618317604065,6.275244235992432,0.11447916179895401,-0.14266273379325867,0.15031132102012634
2026-04-02 12:56:39.030,1540.035556566,183215069,left_foot,左脚,D4:22:CD:00:84:61,0.7611821889877319,0.20275576412677765,-0.36120378971099854,0.49902284145355225,-4.511701738802264,-48.78506170764574,68.54356367043471,7.159898281097412,-0.48496371507644653,6.255759239196777,0.11914707720279694,-0.16581660509109497,0.22200126945972443
2026-04-02 12:56:39.060,1540.065380325,183248403,left_foot,左脚,D4:22:CD:00:84:61,0.7611445188522339,0.20277045667171478,-0.3611961603164673,0.49907973408699036,-4.513996678629467,-48.78497432889993,68.55319200548536,7.147622585296631,-0.4844096601009369,6.2504963874816895,0.17775532603263855,-0.05611742287874222,0.23898248374462128
2026-04-02 12:56:39.090,1540.095323005,183281737,left_foot,左脚,D4:22:CD:00:84:61,0.7610915303230286,0.20278172194957733,-0.3612128496170044,0.49914395809173584,-4.520066535604105,-48.78709280540809,68.56646865807372,7.146145343780518,-0.47821760177612305,6.267129898071289,0.11632969230413437,-0.12653955817222595,0.2831772267818451
2026-04-02 12:56:39.120,1540.125237588,183315071,left_foot,左脚,D4:22:CD:00:84:61,0.7610252499580383,0.2028069645166397,-0.36124667525291443,0.4992101788520813,-4.526617811804347,-48.791939919290776,68.58122248020955,7.145496368408203,-0.4834531545639038,6.2685065269470215,0.03955560550093651,-0.20859621465206146,0.2272646725177765
2026-04-02 12:56:39.151,1540.156536263,183348405,left_foot,左脚,D4:22:CD:00:84:61,0.7609952092170715,0.20279009640216827,-0.3613141179084778,0.49921396374702454,-4.536551752912466,-48.7976522102513,68.58847925520018,7.150875091552734,-0.4811858534812927,6.277239799499512,-0.020931977778673172,-0.24186711013317108,0.26436465978622437
2026-04-02 12:56:39.180,1540.185407258,183381739,left_foot,左脚,D4:22:CD:00:84:61,0.760936975479126,0.20279094576835632,-0.3613376319408417,0.4992855191230774,-4.5452448247021815,-48.799692413107294,68.60407985597749,7.156545162200928,-0.47893640398979187,6.26158332824707,0.013930105604231358,-0.1370343416929245,0.275755912065506
2026-04-02 12:56:39.241,1540.246334796,183415073,left_foot,左脚,D4:22:CD:00:84:61,0.7608956694602966,0.2028077244758606,-0.36137688159942627,0.4993130564689636,-4.550094397420997,-48.804733083181944,68.6122759757743,7.151650905609131,-0.4758268892765045,6.265718936920166,0.1059117242693901,-0.22181236743927002,0.2522434890270233
2026-04-02 12:56:39.270,1540.27546193,183448407,left_foot,左脚,D4:22:CD:00:84:61,0.760833740234375,0.20281076431274414,-0.3613903820514679,0.499396413564682,-4.558417296989866,-48.80583182960607,68.62916238455293,7.152586460113525,-0.4817616045475006,6.2543625831604,0.08486446738243103,-0.11135759949684143,0.3379115164279938
2026-04-02 12:56:39.300,1540.305327073,183481741,left_foot,左脚,D4:22:CD:00:84:61,0.7607511878013611,0.2028380185365677,-0.36138916015625,0.49951207637786865,-4.565008987930642,-48.80692296284802,68.65008788409007,7.1559576988220215,-0.48935580253601074,6.263791561126709,0.11812257021665573,-0.10797033458948135,0.32333794236183167
2026-04-02 12:56:39.360,1540.365288517,183515075,left_foot,左脚,D4:22:CD:00:84:61,0.7606451511383057,0.20289212465286255,-0.3613860607147217,0.4996539354324341,-4.570496797858049,-48.809547201317464,68.67496638524038,7.146775245666504,-0.48316144943237305,6.264231204986572,0.15554271638393402,-0.15507207810878754,0.3237413167953491
2026-04-02 12:56:39.360,1540.365455259,183548409,left_foot,左脚,D4:22:CD:00:84:61,0.7606028914451599,0.202917218208313,-0.3614163398742676,0.499686062335968,-4.573757300660012,-48.814220761764524,68.68297518774985,7.159695625305176,-0.4822339415550232,6.26209831237793,0.1124749705195427,-0.2099793404340744,0.22431282699108124
2026-04-02 12:56:39.390,1540.395396611,183581743,left_foot,左脚,D4:22:CD:00:84:61,0.7605339884757996,0.20295311510562897,-0.361426442861557,0.4997691214084625,-4.5778331881742185,-48.81727434351369,68.69847913017894,7.1461310386657715,-0.4745895266532898,6.259466171264648,0.057382047176361084,-0.1592085361480713,0.20332960784435272
2026-04-02 12:56:39.420,1540.425398773,183615077,left_foot,左脚,D4:22:CD:00:84:61,0.7604808211326599,0.20298314094543457,-0.3614429235458374,0.49982574582099915,-4.581059302672931,-48.820733984065434,68.70974720624709,7.155331134796143,-0.48746028542518616,6.256056308746338,0.07321710884571075,-0.17193804681301117,0.19732344150543213
2026-04-02 12:56:39.450,1540.455429057,183648411,left_foot,左脚,D4:22:CD:00:84:61,0.7604384422302246,0.203013077378273,-0.36148762702941895,0.49984586238861084,-4.58435793633577,-48.827291571548635,68.71661050192719,7.161245822906494,-0.4836158752441406,6.256871700286865,0.11052199453115463,-0.26606470346450806,0.22608008980751038
2026-04-02 12:56:39.480,1540.485234122,183681745,left_foot,左脚,D4:22:CD:00:84:61,0.7603746056556702,0.20303604006767273,-0.3615226149559021,0.4999082386493683,-4.591007098609122,-48.832114867864405,68.73084484405294,7.161015510559082,-0.4857651889324188,6.255741596221924,0.05781746655702591,-0.21642088890075684,0.27254152297973633
2026-04-02 12:56:39.541,1540.546284293,183715079,left_foot,左脚,D4:22:CD:00:84:61,0.7603423595428467,0.20304110646247864,-0.3615534007549286,0.49993279576301575,-4.596026230656115,-48.83548020700919,68.7381038323544,7.157162189483643,-0.4898277521133423,6.268691062927246,0.07429923862218857,-0.16950485110282898,0.24703767895698547
2026-04-02 12:56:39.570,1540.575496922,183748413,left_foot,左脚,D4:22:CD:00:84:61,0.7602925896644592,0.2030671238899231,-0.3615601062774658,0.49999314546585083,-4.59893004733523,-48.83762790241145,68.74932125816127,7.15474796295166,-0.4853968322277069,6.270757675170898,0.12256637215614319,-0.13469716906547546,0.2378043234348297
2026-04-02 12:56:39.600,1540.605252347,183781747,left_foot,左脚,D4:22:CD:00:84:61,0.7602038383483887,0.20309965312480927,-0.361571341753006,0.500106930732727,-4.606177709176487,-48.84037106295482,68.7708623832907,7.15107536315918,-0.4913047254085541,6.269052028656006,0.07686690986156464,-0.16192348301410675,0.31175458431243896
2026-04-02 12:56:39.630,1540.63518928,183815081,left_foot,左脚,D4:22:CD:00:84:61,0.7601491808891296,0.203109472990036,-0.3615819811820984,0.500178337097168,-4.6123764938650265,-48.841717841444954,68.78504134379126,7.142869472503662,-0.4962345361709595,6.265888690948486,0.0567353256046772,-0.1186700165271759,0.26925668120384216
2026-04-02 12:56:39.660,1540.665283777,183848415,left_foot,左脚,D4:22:CD:00:84:61,0.7601001262664795,0.20313255488872528,-0.36163759231567383,0.5002031922340393,-4.618144168211899,-48.848886606761745,68.79402275626687,7.139373779296875,-0.4846547544002533,6.2716803550720215,0.05235235393047333,-0.2959035038948059,0.24072735011577606
2026-04-02 12:56:39.690,1540.695206655,183881749,left_foot,左脚,D4:22:CD:00:84:61,0.7600112557411194,0.20316481590270996,-0.3616681396961212,0.5003031492233276,-4.626442421288927,-48.85367184250512,68.81469756539462,7.152557849884033,-0.48862794041633606,6.252991199493408,0.006169458851218224,-0.2299123853445053,0.2727784812450409
2026-04-02 12:56:39.720,1540.725295003,183915083,left_foot,左脚,D4:22:CD:00:84:61,0.7599306106567383,0.20319534838199615,-0.3616749346256256,0.5004081130027771,-4.632683956381275,-48.855880456599046,68.83426972823703,7.141724109649658,-0.48415911197662354,6.254598617553711,0.06498262286186218,-0.1531575471162796,0.2798475921154022
2026-04-02 12:56:39.750,1540.75523726,183948417,left_foot,左脚,D4:22:CD:00:84:61,0.759878396987915,0.203231081366539,-0.36167261004447937,0.500474750995636,-4.633973441223563,-48.857744762607915,68.84557288386338,7.155243396759033,-0.47242414951324463,6.263748645782471,0.14902429282665253,-0.14040881395339966,0.22721344232559204
2026-04-02 12:56:39.780,1540.785192621,183981751,left_foot,左脚,D4:22:CD:00:84:61,0.7598286271095276,0.20325367152690887,-0.3616918921470642,0.5005271434783936,-4.63804073536889,-48.86098931612139,68.85653955969113,7.156811714172363,-0.47279784083366394,6.264715671539307,0.09623011201620102,-0.1861402690410614,0.2547086775302887
2026-04-02 12:56:39.840,1540.845372431,184015085,left_foot,左脚,D4:22:CD:00:84:61,0.7598000168800354,0.20324088633060455,-0.36172717809677124,0.5005502104759216,-4.645538730112264,-48.863562374887486,68.86448418689073,7.163576126098633,-0.48991358280181885,6.262847423553467,0.06744784116744995,-0.173308327794075,0.3239526152610779
2026-04-02 12:56:39.870,1540.875244545,184048419,left_foot,左脚,D4:22:CD:00:84:61,0.7597627639770508,0.20326757431030273,-0.36175966262817383,0.5005724430084229,-4.648037173021866,-48.86862856570241,68.87078813088314,7.148812770843506,-0.4898102283477783,6.25932502746582,0.12807948887348175,-0.24200157821178436,0.2419535517692566
2026-04-02 12:56:39.900,1540.905358071,184081753,left_foot,左脚,D4:22:CD:00:84:61,0.7597505450248718,0.20329385995864868,-0.36178767681121826,0.5005602240562439,-4.647103986260499,-48.87341571984697,68.87015944428984,7.154122352600098,-0.47981974482536316,6.251428604125977,0.11741180717945099,-0.22745999693870544,0.14622609317302704
2026-04-02 12:56:39.931,1540.936323607,184115087,left_foot,左脚,D4:22:CD:00:84:61,0.7596995830535889,0.20332755148410797,-0.3618195354938507,0.5006008744239807,-4.65030071790068,-48.87879770026907,68.87968435047746,7.148394584655762,-0.475208580493927,6.278940677642822,0.10735242813825607,-0.25484636425971985,0.2473386526107788
2026-04-02 12:56:39.960,1540.965197223,184148421,left_foot,左脚,D4:22:CD:00:84:61,0.7596493363380432,0.20334583520889282,-0.36184847354888916,0.5006487369537354,-4.655588099394304,-48.88275389981442,68.89080044912524,7.1545209884643555,-0.48520728945732117,6.260833740234375,0.11059883236885071,-0.22155623137950897,0.311953067779541
2026-04-02 12:56:40.020,1541.025267426,184181755,left_foot,左脚,D4:22:CD:00:84:61,0.7595883011817932,0.20336288213729858,-0.3618756830692291,0.5007146596908569,-4.662381746627898,-48.886336193174856,68.90523163512981,7.1620988845825195,-0.4832618236541748,6.25595760345459,0.039984624832868576,-0.20958870649337769,0.2914181053638458
2026-04-02 12:56:40.020,1541.025936855,184215089,left_foot,左脚,D4:22:CD:00:84:61,0.7595545649528503,0.2033742517232895,-0.3618820607662201,0.500756561756134,-4.665393187490832,-48.887533083541896,68.913406307275,7.150109767913818,-0.48617106676101685,6.27018928527832,0.08158606290817261,-0.13517743349075317,0.23921942710876465
2026-04-02 12:56:40.051,1541.056402848,184248423,left_foot,左脚,D4:22:CD:00:84:61,0.7595111131668091,0.2033955454826355,-0.361910879611969,0.5007929801940918,-4.669333829944125,-48.891757331750895,68.92224994246726,7.151359558105469,-0.4811447262763977,6.256192207336426,0.075349360704422,-0.2306039184331894,0.25121256709098816
2026-04-02 12:56:40.080,1541.085245521,184281757,left_foot,左脚,D4:22:CD:00:84:61,0.759489893913269,0.20341508090496063,-0.3619350492954254,0.5007997155189514,-4.670393629778636,-48.895565126451544,68.92509923192452,7.1545257568359375,-0.49355101585388184,6.250247955322266,0.10354893654584885,-0.21606232225894928,0.20587807893753052
2026-04-02 12:56:40.141,1541.146394499,184315091,left_foot,左脚,D4:22:CD:00:84:61,0.7594698667526245,0.2034316062927246,-0.3619394302368164,0.5008203387260437,-4.67073841193861,-48.89704683783086,68.9288864679763,7.149719715118408,-0.47936734557151794,6.279083251953125,0.08537033200263977,-0.14560820162296295,0.17730712890625
2026-04-02 12:56:40.170,1541.175226715,184348425,left_foot,左脚,D4:22:CD:00:84:61,0.7594660520553589,0.20344235002994537,-0.36194896697998047,0.5008147954940796,-4.670097412393505,-48.89881470468315,68.9283632354996,7.158995151519775,-0.47690290212631226,6.255538463592529,0.11056041717529297,-0.15849778056144714,0.17856213450431824
2026-04-02 12:56:40.200,1541.205350893,184381759,left_foot,左脚,D4:22:CD:00:84:61,0.759412407875061,0.2034749984741211,-0.3619488775730133,0.5008831024169922,-4.672160052394529,-48.90068045625913,68.94029701563208,7.148212432861328,-0.4862908720970154,6.267542839050293,0.11218041926622391,-0.16913986206054688,0.25437572598457336
2026-04-02 12:56:40.231,1541.236564658,184415093,left_foot,左脚,D4:22:CD:00:84:61,0.7593647241592407,0.20349790155887604,-0.3619690537452698,0.5009313225746155,-4.675953715401132,-48.90406527969027,68.95056850864624,7.1496357917785645,-0.47906872630119324,6.265727996826172,0.04578590393066406,-0.21711887419223785,0.23986613750457764
2026-04-02 12:56:40.290,1541.295096341,184448427,left_foot,左脚,D4:22:CD:00:84:61,0.7593395113945007,0.20348414778709412,-0.36201080679893494,0.5009450316429138,-4.683506160798998,-48.907281818971505,68.957356308911,7.151968002319336,-0.47822269797325134,6.251411437988281,-0.016264064237475395,-0.21841228008270264,0.2862251400947571
2026-04-02 12:56:40.290,1541.295773892,184481761,left_foot,左脚,D4:22:CD:00:84:61,0.7593070864677429,0.2034822702407837,-0.36202701926231384,0.5009832382202148,-4.688871231403149,-48.908572166051336,68.96612962132775,7.159461498260498,-0.4781925678253174,6.274056911468506,0.050415392965078354,-0.1636587381362915,0.2977316081523895
2026-04-02 12:56:40.320,1541.325251656,184515095,left_foot,左脚,D4:22:CD:00:84:61,0.7592577934265137,0.2035003900527954,-0.36204028129577637,0.5010408163070679,-4.6932437050430655,-48.91085402199365,68.97770723120108,7.153596878051758,-0.4779239594936371,6.256782054901123,0.0348556824028492,-0.1927291601896286,0.2606123983860016
2026-04-02 12:56:40.350,1541.355056361,184548429,left_foot,左脚,D4:22:CD:00:84:61,0.7592496275901794,0.20350873470306396,-0.36205989122390747,0.5010359883308411,-4.69408363133192,-48.913468717513794,68.97827797237282,7.156242370605469,-0.4791495203971863,6.266997814178467,0.13397683203220367,-0.20540104806423187,0.25661683082580566
2026-04-02 12:56:40.380,1541.385213406,184581763,left_foot,左脚,D4:22:CD:00:84:61,0.7592012882232666,0.20353837311267853,-0.3620398938655853,0.5011115074157715,-4.69485949335355,-48.913048198795,68.98990457658121,7.14947509765625,-0.4832010269165039,6.2647624015808105,0.10822965949773788,-0.11550045758485794,0.24351593852043152
2026-04-02 12:56:40.440,1541.44528589,184615097,left_foot,左脚,D4:22:CD:00:84:61,0.7591488361358643,0.20358052849769592,-0.36205339431762695,0.5011641383171082,-4.696024681161405,-48.91707268430779,68.99980757693578,7.148592948913574,-0.4817637503147125,6.266268253326416,0.10669289529323578,-0.25235554575920105,0.24368882179260254
2026-04-02 12:56:40.470,1541.475444741,184648431,left_foot,左脚,D4:22:CD:00:84:61,0.7591117024421692,0.2035917341709137,-0.3620806932449341,0.5011961460113525,-4.700599369413446,-48.920455284903774,69.00800090882649,7.159876346588135,-0.4870222210884094,6.269486427307129,0.013283385895192623,-0.23776911199092865,0.2564759850502014
2026-04-02 12:56:40.530,1541.53533061,184681765,left_foot,左脚,D4:22:CD:00:84:61,0.7590594291687012,0.2036220282316208,-0.36208027601242065,0.5012630224227905,-4.702798754832844,-48.922140653986546,69.0197451332986,7.154629707336426,-0.4806031882762909,6.274890422821045,0.07618817687034607,-0.18963003158569336,0.25703945755958557
2026-04-02 12:56:40.531,1541.536250949,184715099,left_foot,左脚,D4:22:CD:00:84:61,0.7590746879577637,0.20360314846038818,-0.36210498213768005,0.5012297630310059,-4.70495459802885,-48.9235416550675,69.01624100351329,7.1567277908325195,-0.4780152142047882,6.2596821784973145,0.043839335441589355,-0.18299631774425507,0.230882465839386
2026-04-02 12:56:40.560,1541.565360668,184748433,left_foot,左脚,D4:22:CD:00:84:61,0.7590523958206177,0.20362022519111633,-0.36211779713630676,0.5012475252151489,-4.705955775593477,-48.92594080019947,69.02023073853005,7.15027379989624,-0.47386208176612854,6.2637434005737305,0.09577547758817673,-0.21645288169384003,0.24859364330768585
2026-04-02 12:56:40.590,1541.595325021,184781767,left_foot,左脚,D4:22:CD:00:84:61,0.7590276002883911,0.20361870527267456,-0.3621434271335602,0.50126713514328,-4.710758605295177,-48.92833382790251,69.02632028624836,7.152904987335205,-0.4771515727043152,6.262726783752441,0.021063245832920074,-0.22240789234638214,0.28646206855773926
2026-04-02 12:56:40.651,1541.656436811,184815101,left_foot,左脚,D4:22:CD:00:84:61,0.7589965462684631,0.20363561809062958,-0.36215677857398987,0.5012977123260498,-4.712951397747888,-48.93069975715435,69.03280708556325,7.150269031524658,-0.49020326137542725,6.254983425140381,0.08054233342409134,-0.22319546341896057,0.2711520195007324
2026-04-02 12:56:40.652,1541.657115922,184848435,left_foot,左脚,D4:22:CD:00:84:61,0.7589882016181946,0.2036348432302475,-0.36216405034065247,0.5013052821159363,-4.7145311565210255,-48.93134472250968,69.03493398664116,7.15179443359375,-0.4828074276447296,6.272256374359131,0.11718130111694336,-0.17597843706607819,0.29510629177093506
2026-04-02 12:56:40.680,1541.685107504,184881769,left_foot,左脚,D4:22:CD:00:84:61,0.7589728832244873,0.20364165306091309,-0.3621625602245331,0.5013267397880554,-4.7154206085027095,-48.93154034129502,69.03866817428901,7.155060768127441,-0.48218539357185364,6.248696327209473,0.0974787175655365,-0.1629863977432251,0.26497939229011536
2026-04-02 12:56:40.741,1541.746092178,184915103,left_foot,左脚,D4:22:CD:00:84:61,0.7589564323425293,0.20366868376731873,-0.3621370792388916,0.5013589859008789,-4.712139931708262,-48.930642705968786,69.04166078884725,7.1514973640441895,-0.4847066104412079,6.257709980010986,0.15498563647270203,-0.1272054761648178,0.21057160198688507
2026-04-02 12:56:40.770,1541.775324328,184948437,left_foot,左脚,D4:22:CD:00:84:61,0.7589324116706848,0.2037018984556198,-0.362148255109787,0.5013740062713623,-4.7108361731885156,-48.93402837775417,69.04448169384155,7.148434162139893,-0.4879216253757477,6.279714584350586,0.07367172092199326,-0.25623583793640137,0.18440823256969452
2026-04-02 12:56:40.800,1541.805230307,184981771,left_foot,左脚,D4:22:CD:00:84:61,0.7589040994644165,0.20370788872241974,-0.3621765971183777,0.5013941526412964,-4.715115209178399,-48.93721860757662,69.05067368543371,7.160545825958252,-0.4904117286205292,6.2711920738220215,0.06879250705242157,-0.26663458347320557,0.3264818787574768
2026-04-02 12:56:40.830,1541.835144148,185015105,left_foot,左脚,D4:22:CD:00:84:61,0.7589194178581238,0.20368845760822296,-0.36217257380485535,0.5013816356658936,-4.715843246903328,-48.935518125808805,69.04854143905187,7.145967483520508,-0.48151692748069763,6.271278381347656,0.020826326683163643,-0.11331697553396225,0.2073892205953598
2026-04-02 12:56:40.860,1541.865077715,185048439,left_foot,左脚,D4:22:CD:00:84:61,0.7589138150215149,0.20368579030036926,-0.3621675968170166,0.5013945698738098,-4.716708443131537,-48.934746397727515,69.0506459763039,7.1525774002075195,-0.4814951717853546,6.262185573577881,0.055313825607299805,-0.14694644510746002,0.24229933321475983
2026-04-02 12:56:40.890,1541.895171937,185081773,left_foot,左脚,D4:22:CD:00:84:61,0.7589144110679626,0.20367863774299622,-0.36217692494392395,0.5013901591300964,-4.718219201810982,-48.935215301028336,69.05085264240526,7.159019947052002,-0.47725021839141846,6.256547927856445,0.08829658478498459,-0.1914101094007492,0.28665414452552795
2026-04-02 12:56:40.920,1541.925236802,185115107,left_foot,左脚,D4:22:CD:00:84:61,0.7588925957679749,0.20368555188179016,-0.36217039823532104,0.5014249086380005,-4.71967231039497,-48.93482396460445,69.05666291764955,7.149789810180664,-0.4899475574493408,6.264814376831055,0.10573883354663849,-0.16767354309558868,0.3058444559574127
2026-04-02 12:56:40.950,1541.95525923,185148441,left_foot,左脚,D4:22:CD:00:84:61,0.7588809132575989,0.20369389653205872,-0.3621501326560974,0.501453697681427,-4.7188701646727225,-48.93316516712716,69.06005230431018,7.154919624328613,-0.4824037253856659,6.264560222625732,0.13770988583564758,-0.13022136688232422,0.2819669842720032
2026-04-02 12:56:40.981,1541.986369089,185181775,left_foot,左脚,D4:22:CD:00:84:61,0.7588767409324646,0.20370212197303772,-0.3621414601802826,0.5014631152153015,-4.717726298989812,-48.932795734109106,69.060792389206,7.153999328613281,-0.479821115732193,6.256001949310303,0.11066927015781403,-0.1683330535888672,0.24610918760299683
2026-04-02 12:56:41.041,1542.046506325,185215109,left_foot,左脚,D4:22:CD:00:84:61,0.7588573098182678,0.2037113755941391,-0.36215096712112427,0.501481831073761,-4.7193540803844645,-48.93430543726229,69.06492587155036,7.1423258781433105,-0.4844687879085541,6.27126407623291,0.04593317210674286,-0.22824114561080933,0.26291754841804504
2026-04-02 12:56:41.071,1542.076387475,185248443,left_foot,左脚,D4:22:CD:00:84:61,0.758843183517456,0.2037249207496643,-0.3621566593647003,0.5014935731887817,-4.719441511288764,-48.93577007828272,69.06725388469017,7.153018951416016,-0.47105979919433594,6.260417461395264,0.061275187879800797,-0.22852292656898499,0.24053847789764404
2026-04-02 12:56:41.101,1542.106254418,185281777,left_foot,左脚,D4:22:CD:00:84:61,0.7588111758232117,0.20374248921871185,-0.3621574938297272,0.501534104347229,-4.720994764134022,-48.936846398461626,69.07449847132193,7.1512131690979,-0.4738832414150238,6.264200687408447,0.07200050354003906,-0.22289450466632843,0.2914052903652191
2026-04-02 12:56:41.130,1542.135383252,185315111,left_foot,左脚,D4:22:CD:00:84:61,0.7588068246841431,0.20374107360839844,-0.36215344071388245,0.5015444755554199,-4.721582719512081,-48.936260868239934,69.07612953825326,7.153550148010254,-0.4840933084487915,6.25661039352417,0.04070818051695824,-0.17159868776798248,0.24696724116802216
2026-04-02 12:56:41.161,1542.166579523,185348445,left_foot,左脚,D4:22:CD:00:84:61,0.7587913870811462,0.20374442636966705,-0.36216121912002563,0.5015607476234436,-4.723491309917189,-48.93719379900955,69.07982826642615,7.157537460327148,-0.47228825092315674,6.255301475524902,0.041995223611593246,-0.22119766473770142,0.2796810567378998
2026-04-02 12:56:41.191,1542.196311126,185381779,left_foot,左脚,D4:22:CD:00:84:61,0.7587890625,0.20375841856002808,-0.3621441423892975,0.5015710592269897,-4.720791178966801,-48.93636749301482,69.07980199848066,7.152294635772705,-0.47701597213745117,6.2570271492004395,0.13472598791122437,-0.16705240309238434,0.24865128099918365
2026-04-02 12:56:41.221,1542.226554853,185415113,left_foot,左脚,D4:22:CD:00:84:61,0.7587748169898987,0.20377367734909058,-0.3621336817741394,0.501593828201294,-4.719785757190499,-48.936236301479596,69.08271994761363,7.151413440704346,-0.49406376481056213,6.265983581542969,0.07057260721921921,-0.1879395991563797,0.2372216284275055
2026-04-02 12:56:41.250,1542.255385457,185448447,left_foot,左脚,D4:22:CD:00:84:61,0.758764922618866,0.2037981003522873,-0.36208316683769226,0.5016354322433472,-4.7147459178459,-48.932535083757095,69.08529932509822,7.140624046325684,-0.4786699712276459,6.2644782066345215,0.14685361087322235,-0.08092973381280899,0.20766456425189972
2026-04-02 12:56:41.280,1542.285332939,185481781,left_foot,左脚,D4:22:CD:00:84:61,0.7587727308273315,0.20379416644573212,-0.36208057403564453,0.5016269087791443,-4.7141769921683485,-48.932049901597885,69.08357778035582,7.147395610809326,-0.47351309657096863,6.266704082489014,0.04742511734366417,-0.18296431005001068,0.23134349286556244
2026-04-02 12:56:41.371,1542.376430437,185515115,left_foot,左脚,D4:22:CD:00:84:61,0.7587844133377075,0.20381000638008118,-0.3620860278606415,0.5015989542007446,-4.710538120612175,-48.933895856211954,69.0782619832217,7.142797946929932,-0.4822569191455841,6.274543285369873,0.10948469489812851,-0.25401392579078674,0.20353449881076813
2026-04-02 12:56:41.372,1542.377530469,185548449,left_foot,左脚,D4:22:CD:00:84:61,0.7587924599647522,0.2038177251815796,-0.36208492517471313,0.5015842914581299,-4.708250359498274,-48.93442207591685,69.07514569375675,7.153329372406006,-0.47739189863204956,6.26545524597168,0.061198342591524124,-0.21706761419773102,0.20323355495929718
2026-04-02 12:56:41.401,1542.406261155,185581783,left_foot,左脚,D4:22:CD:00:84:61,0.7587898969650269,0.2038009613752365,-0.3620895445346832,0.501591682434082,-4.711370367590235,-48.93366520442479,69.07748455398205,7.1573710441589355,-0.4859064519405365,6.260240077972412,-0.0043349494226276875,-0.18646687269210815,0.28955477476119995
2026-04-02 12:56:41.430,1542.435531928,185615117,left_foot,左脚,D4:22:CD:00:84:61,0.7587937116622925,0.2037883996963501,-0.36205893754959106,0.5016130805015564,-4.711179500859863,-48.92951861280909,69.07917555171946,7.147842884063721,-0.48236584663391113,6.251419544219971,0.05518576130270958,-0.08345898240804672,0.26771995425224304
2026-04-02 12:56:41.462,1542.46743627,185648451,left_foot,左脚,D4:22:CD:00:84:61,0.7588004469871521,0.2037971317768097,-0.3620544373989105,0.5016027688980103,-4.708750778268191,-48.929734149453175,69.0765281452915,7.147967338562012,-0.48035794496536255,6.275506973266602,0.09483421593904495,-0.21341140568256378,0.23413528501987457
2026-04-02 12:56:41.490,1542.495550365,185681785,left_foot,左脚,D4:22:CD:00:84:61,0.7588008046150208,0.20380032062530518,-0.3620476722717285,0.501605749130249,-4.707864121266349,-48.92925066026515,69.07638856341572,7.152400493621826,-0.4857437312602997,6.256603240966797,0.08084968477487564,-0.1973266452550888,0.2642878293991089
2026-04-02 12:56:41.521,1542.526487562,185715119,left_foot,左脚,D4:22:CD:00:84:61,0.7588353157043457,0.20378468930721283,-0.3620251715183258,0.5015762448310852,-4.704559703690155,-48.926028219535205,69.06922524760502,7.1442484855651855,-0.4872511029243469,6.253892421722412,0.09767082333564758,-0.11247176676988602,0.22139936685562134
2026-04-02 12:56:41.551,1542.55641007,185748453,left_foot,左脚,D4:22:CD:00:84:61,0.7588656544685364,0.20378252863883972,-0.36199232935905457,0.5015546679496765,-4.699198565571344,-48.9226582878076,69.06224108324894,7.1539306640625,-0.487513929605484,6.25235652923584,0.16603751480579376,-0.10982084274291992,0.22711096704006195
2026-04-02 12:56:41.581,1542.586324938,185781787,left_foot,左脚,D4:22:CD:00:84:61,0.7588929533958435,0.20377479493618011,-0.3619752526283264,0.5015289783477783,-4.695924238111009,-48.92052241995394,69.05604789280773,7.151125431060791,-0.46597445011138916,6.263961315155029,0.10709630697965622,-0.14721539616584778,0.23028700053691864
2026-04-02 12:56:41.640,1542.645205938,185815121,left_foot,左脚,D4:22:CD:00:84:61,0.7589033246040344,0.20379230380058289,-0.36197662353515625,0.5015053749084473,-4.691996593696931,-48.92203824060288,69.05113278604973,7.158104419708252,-0.47172677516937256,6.26328706741333,0.12281608581542969,-0.2578238248825073,0.22378775477409363
2026-04-02 12:56:41.670,1542.67533944,185848455,left_foot,左脚,D4:22:CD:00:84:61,0.7589248418807983,0.2037809193134308,-0.3619692027568817,0.5014827251434326,-4.690522032212632,-48.9206184196428,69.04651605147737,7.152819633483887,-0.47432342171669006,6.270144462585449,0.06982982158660889,-0.17230942845344543,0.24751152098178864
2026-04-02 12:56:41.700,1542.70532476,185881789,left_foot,左脚,D4:22:CD:00:84:61,0.7589026093482971,0.20378634333610535,-0.36195996403694153,0.5015208125114441,-4.692121146945157,-48.91982161574226,69.05275210363035,7.15000581741333,-0.47858771681785583,6.268730163574219,0.03972209617495537,-0.196449413895607,0.3053514063358307
2026-04-02 12:56:41.761,1542.76645704,185915123,left_foot,左脚,D4:22:CD:00:84:61,0.758954644203186,0.20374822616577148,-0.3619670569896698,0.5014523863792419,-4.691471649015123,-48.9182830954909,69.0415748378737,7.146002292633057,-0.47492748498916626,6.251652240753174,0.025558272376656532,-0.17124012112617493,0.23662611842155457
2026-04-02 12:56:41.762,1542.767616794,185948457,left_foot,左脚,D4:22:CD:00:84:61,0.7589695453643799,0.20375259220600128,-0.3619564473628998,0.5014355778694153,-4.68830294626548,-48.91761322518988,69.03729708883246,7.151969909667969,-0.49339282512664795,6.249427795410156,0.09270835667848587,-0.19623808562755585,0.22714301943778992
2026-04-02 12:56:41.791,1542.796543597,185981791,left_foot,左脚,D4:22:CD:00:84:61,0.7589890956878662,0.20375289022922516,-0.36194944381713867,0.501410961151123,-4.685341693025265,-48.917068973750496,69.03197656986254,7.152341365814209,-0.48636776208877563,6.248068809509277,0.0674414336681366,-0.1986008584499359,0.2102898508310318
2026-04-02 12:56:41.820,1542.82546229,186015125,left_foot,左脚,D4:22:CD:00:84:61,0.7590245604515076,0.20375092327594757,-0.36190512776374817,0.5013900399208069,-4.678700091257411,-48.912528325118494,69.02406638654821,7.151349067687988,-0.48463329672813416,6.262969017028809,0.14697527885437012,-0.07727351039648056,0.19317418336868286
2026-04-02 12:56:41.851,1542.856467841,186048459,left_foot,左脚,D4:22:CD:00:84:61,0.7590409517288208,0.20374901592731476,-0.3618738353252411,0.5013886094093323,-4.675221693393553,-48.90920226093258,69.021030094944,7.148044586181641,-0.4731465280056,6.281186103820801,0.07125132530927658,-0.11551326513290405,0.2083112746477127
2026-04-02 12:56:41.881,1542.886507075,186081793,left_foot,左脚,D4:22:CD:00:84:61,0.7590489387512207,0.20376425981521606,-0.3618677854537964,0.5013746619224548,-4.671550332510677,-48.90974442078253,69.01736443184588,7.147043228149414,-0.47277817130088806,6.270437717437744,0.11516431719064713,-0.23649486899375916,0.23350776731967926
2026-04-02 12:56:41.941,1542.946613655,186115127,left_foot,左脚,D4:22:CD:00:84:61,0.7590678930282593,0.20376405119895935,-0.36190152168273926,0.5013216733932495,-4.670859245814212,-48.91350608708384,69.0103492217461,7.142158031463623,-0.47753095626831055,6.27195930480957,0.01466647069901228,-0.33359894156455994,0.21837066113948822
2026-04-02 12:56:41.971,1542.976528927,186148461,left_foot,左脚,D4:22:CD:00:84:61,0.7590757608413696,0.20375575125217438,-0.361911416053772,0.5013061761856079,-4.671615208042257,-48.91402383453099,69.00854379665128,7.155606269836426,-0.4789954125881195,6.255019187927246,-0.009694406762719154,-0.23916497826576233,0.2432277947664261
2026-04-02 12:56:42.001,1543.006543462,186181795,left_foot,左脚,D4:22:CD:00:84:61,0.7590916752815247,0.20375148952007294,-0.3618870675563812,0.5013014078140259,-4.668917822491622,-48.91126219965214,69.00557353480035,7.151268482208252,-0.47632935643196106,6.269643783569336,0.0811634361743927,-0.14010785520076752,0.24072414636611938
2026-04-02 12:56:42.030,1543.035423466,186215129,left_foot,左脚,D4:22:CD:00:84:61,0.7591295838356018,0.20372457802295685,-0.3618890047073364,0.5012534856796265,-4.668145432388852,-48.90985971629025,68.99748398598848,7.144139289855957,-0.47698020935058594,6.271004676818848,0.05396915599703789,-0.18469959497451782,0.2668234705924988
2026-04-02 12:56:42.061,1543.066458029,186248463,left_foot,左脚,D4:22:CD:00:84:61,0.7591592669487,0.20371264219284058,-0.361873596906662,0.5012245774269104,-4.6652816122226195,-48.90761859916425,68.9909706493714,7.159082412719727,-0.481869101524353,6.272623062133789,0.11328175663948059,-0.16052117943763733,0.2645823657512665
2026-04-02 12:56:42.090,1543.095478748,186281797,left_foot,左脚,D4:22:CD:00:84:61,0.7591775059700012,0.20371197164058685,-0.3618472218513489,0.5012159943580627,-4.661615194044987,-48.904932903141884,68.98700114604648,7.159266471862793,-0.48616570234298706,6.251780986785889,0.14902427792549133,-0.1486305147409439,0.2788166105747223
2026-04-02 12:56:42.121,1543.126569283,186315131,left_foot,左脚,D4:22:CD:00:84:61,0.7592140436172485,0.20371080935001373,-0.36184778809547424,0.5011609196662903,-4.657059371367995,-48.90524152532671,68.97661658163085,7.158757209777832,-0.485065758228302,6.281418800354004,0.10279335826635361,-0.23283864557743073,0.20612139999866486
2026-04-02 12:56:42.151,1543.156273499,186348465,left_foot,左脚,D4:22:CD:00:84:61,0.7592219710350037,0.20371536910533905,-0.36183416843414307,0.5011568069458008,-4.654620065385719,-48.90419674413573,68.97447221100974,7.149590492248535,-0.49015358090400696,6.275378227233887,0.08184217661619186,-0.19612282514572144,0.2458338737487793
2026-04-02 12:56:42.180,1543.185386799,186381799,left_foot,左脚,D4:22:CD:00:84:61,0.7592231631278992,0.20371468365192413,-0.36181947588920593,0.501166045665741,-4.653814241450007,-48.90258510343478,68.97491481540087,7.153501987457275,-0.4718286991119385,6.259414196014404,0.03635402396321297,-0.17990362644195557,0.24929800629615784
2026-04-02 12:56:42.241,1543.246537442,186415133,left_foot,左脚,D4:22:CD:00:84:61,0.7592255473136902,0.20372408628463745,-0.3618136942386627,0.5011626482009888,-4.651768434162172,-48.9026801401651,68.97346541801565,7.145267486572266,-0.4671885669231415,6.270702362060547,0.06806255131959915,-0.23146195709705353,0.24456605315208435
2026-04-02 12:56:42.272,1543.27735059,186448467,left_foot,左脚,D4:22:CD:00:84:61,0.7592458128929138,0.20370274782180786,-0.36180877685546875,0.5011441707611084,-4.652103049350268,-48.90078712435656,68.97017628078572,7.150606632232666,-0.47273704409599304,6.258555889129639,0.04198881983757019,-0.17621536552906036,0.2872048020362854
2026-04-02 12:56:42.302,1543.307400184,186481801,left_foot,左脚,D4:22:CD:00:84:61,0.7592546343803406,0.20368842780590057,-0.3618060052394867,0.5011385679244995,-4.652975917160173,-48.8995306743225,68.96931097417361,7.161696434020996,-0.48278799653053284,6.253448963165283,0.0242007989436388,-0.1943427473306656,0.2867373526096344
2026-04-02 12:56:42.331,1543.336580986,186515135,left_foot,左脚,D4:22:CD:00:84:61,0.7608031034469604,0.20335225760936737,-0.36013373732566833,0.5001303553581238,-4.415814635248281,-48.71065568438716,68.63930598023428,7.14529275894165,-0.4846028983592987,6.264603137969971,0.059700001031160355,-0.22798505425453186,0.21493218839168549
2026-04-02 12:56:42.361,1543.366506261,186548469,left_foot,左脚,D4:22:CD:00:84:61,0.7608200311660767,0.2033570557832718,-0.3601284325122833,0.5001063942909241,-4.412608641768773,-48.71058913731434,68.63415956381485,7.157194137573242,-0.48760154843330383,6.266793727874756,0.13758181035518646,-0.18179254233837128,0.21670584380626678
2026-04-02 12:56:42.390,1543.395327781,186581803,left_foot,左脚,D4:22:CD:00:84:61,0.7608242630958557,0.20336610078811646,-0.36012470722198486,0.5000989437103271,-4.410494366465672,-48.71088512147138,68.63213890857749,7.156643390655518,-0.4829685688018799,6.265556335449219,0.11673306673765182,-0.19382411241531372,0.2261313498020172
2026-04-02 12:56:42.420,1543.425420883,186615137,left_foot,左脚,D4:22:CD:00:84:61,0.7608368992805481,0.20336368680000305,-0.3601267635822296,0.500079333782196,-4.409328623896806,-48.71103745929458,68.62868162499079,7.150050640106201,-0.48897865414619446,6.265129089355469,0.11221244186162949,-0.19081462919712067,0.24651262164115906
2026-04-02 12:56:42.451,1543.45666374,186648471,left_foot,左脚,D4:22:CD:00:84:61,0.7608426213264465,0.20336966216564178,-0.3601381182670593,0.500059962272644,-4.408257177306816,-48.7127342068475,68.62584170513934,7.1487040519714355,-0.4776740074157715,6.265475749969482,0.10890200734138489,-0.2372504323720932,0.24188955128192902
2026-04-02 12:56:42.483,1543.488310854,186681805,left_foot,左脚,D4:22:CD:00:84:61,0.7608602643013,0.20334544777870178,-0.3601652979850769,0.500023365020752,-4.411027199042728,-48.71403537723246,68.62208868178651,7.159745693206787,-0.4887423813343048,6.261504650115967,0.006585665047168732,-0.22604487836360931,0.2550864517688751
2026-04-02 12:56:42.541,1543.546530845,186715139,left_foot,左脚,D4:22:CD:00:84:61,0.7608649134635925,0.20333749055862427,-0.3601737320423126,0.5000133514404297,-4.412056185305169,-48.71440256215398,68.6211974981343,7.152711391448975,-0.48122698068618774,6.2593674659729,0.08583775907754898,-0.19999036192893982,0.27902156114578247
2026-04-02 12:56:42.571,1543.576515619,186748473,left_foot,左脚,D4:22:CD:00:84:61,0.7608809471130371,0.2033395618200302,-0.3601643741130829,0.4999949038028717,-4.4091789172547635,-48.71369386239605,68.61681186771864,7.15059232711792,-0.48430073261260986,6.249533176422119,0.1322287619113922,-0.16300562024116516,0.22046449780464172
2026-04-02 12:56:42.601,1543.606624951,186781807,left_foot,左脚,D4:22:CD:00:84:61,0.7608951330184937,0.20333269238471985,-0.3601623773574829,0.49997755885124207,-4.408273362869335,-48.71310758677054,68.61356933025749,7.161459445953369,-0.47643813490867615,6.277273654937744,0.06879250705242157,-0.1664697378873825,0.21622559428215027
2026-04-02 12:56:42.630,1543.635257302,186815141,left_foot,左脚,D4:22:CD:00:84:61,0.7608984708786011,0.203335702419281,-0.360160768032074,0.499972403049469,-4.407299342401574,-48.713183726802995,68.61235838044179,7.15938663482666,-0.4900566339492798,6.255455493927002,0.12109363824129105,-0.1894507259130478,0.25784623622894287
2026-04-02 12:56:42.662,1543.667363171,186848475,left_foot,左脚,D4:22:CD:00:84:61,0.7609127163887024,0.20334777235984802,-0.36015504598617554,0.49994993209838867,-4.40332126374586,-48.71357329168043,68.60722518789517,7.156154155731201,-0.48732128739356995,6.2751593589782715,0.12664517760276794,-0.19301728904247284,0.1842929720878601
2026-04-02 12:56:42.691,1543.696486838,186881809,left_foot,左脚,D4:22:CD:00:84:61,0.7609363794326782,0.20333942770957947,-0.36014604568481445,0.4999236464500427,-4.401038536671079,-48.71222081078767,68.60172764029484,7.14768123626709,-0.4715390205383301,6.262963771820068,0.06891416758298874,-0.1409466713666916,0.1828586608171463
2026-04-02 12:56:42.721,1543.726413816,186915143,left_foot,左脚,D4:22:CD:00:84:61,0.7609483003616333,0.20332787930965424,-0.3601643145084381,0.499897301197052,-4.402189910334625,-48.71343048184999,68.59871037719662,7.153751850128174,-0.4851303994655609,6.271721839904785,0.017541497945785522,-0.22100557386875153,0.22016997635364532
2026-04-02 12:56:42.752,1543.75729476,186948477,left_foot,左脚,D4:22:CD:00:84:61,0.7609534859657288,0.20332816243171692,-0.3601783514022827,0.49987897276878357,-4.4021796738172405,-48.71500069997871,68.5964920563869,7.154272556304932,-0.4831044673919678,6.249486446380615,0.10338886082172394,-0.23511816561222076,0.2645759582519531
2026-04-02 12:56:42.781,1543.786456245,186981811,left_foot,左脚,D4:22:CD:00:84:61,0.7609613537788391,0.20330940186977386,-0.3601837754249573,0.4998707175254822,-4.404279722893906,-48.71428952460318,68.59599888085609,7.161142349243164,-0.4879341423511505,6.255796909332275,0.07488191872835159,-0.16889013350009918,0.29915952682495117
2026-04-02 12:56:42.843,1543.848419154,187015145,left_foot,左脚,D4:22:CD:00:84:61,0.7609659433364868,0.20331376791000366,-0.36019366979599,0.49985471367836,-4.403520556781537,-48.715705478054325,68.59371967911417,7.157858848571777,-0.48803281784057617,6.264102935791016,0.10604618489742279,-0.22890709340572357,0.24722976982593536
2026-04-02 12:56:42.871,1543.876358193,187048479,left_foot,左脚,D4:22:CD:00:84:61,0.7609642148017883,0.203318253159523,-0.36020663380622864,0.49984633922576904,-4.403737950765091,-48.7173939182339,68.59313488853782,7.155740261077881,-0.4865036606788635,6.25935173034668,0.08644605427980423,-0.23762820661067963,0.25584205985069275
2026-04-02 12:56:42.901,1543.906403454,187081813,left_foot,左脚,D4:22:CD:00:84:61,0.7609618306159973,0.20333416759967804,-0.36021915078163147,0.49983441829681396,-4.402271455212062,-48.71986344169678,68.5914951714539,7.152176856994629,-0.4780691862106323,6.273584842681885,0.13074320554733276,-0.2606540024280548,0.24677510559558868
2026-04-02 12:56:42.931,1543.936225971,187115147,left_foot,左脚,D4:22:CD:00:84:61,0.7609810829162598,0.2033539116382599,-0.3602246046066284,0.49979329109191895,-4.39705618926863,-48.72204073535904,68.58357479623783,7.162031173706055,-0.49071821570396423,6.276105880737305,0.12283530086278915,-0.24401216208934784,0.1427747756242752
2026-04-02 12:56:42.991,1543.996505827,187148481,left_foot,左脚,D4:22:CD:00:84:61,0.7610040903091431,0.20334787666797638,-0.3602072596549988,0.4997733235359192,-4.394094610786811,-48.71995138196444,68.57844532787094,7.1483378410339355,-0.4835050106048584,6.276889324188232,0.08173331618309021,-0.1183178573846817,0.17557184398174286
2026-04-02 12:56:42.992,1543.997171714,187181815,left_foot,左脚,D4:22:CD:00:84:61,0.7610096335411072,0.20333895087242126,-0.3602111339569092,0.4997656047344208,-4.394919181717299,-48.71977052435281,68.57761570586058,7.13569974899292,-0.48025745153427124,6.270065784454346,0.05318797007203102,-0.18117782473564148,0.24561616778373718
2026-04-02 12:56:43.021,1544.026459402,187215149,left_foot,左脚,D4:22:CD:00:84:61,0.7609955072402954,0.20333729684352875,-0.3602484166622162,0.4997606575489044,-4.3989033498884105,-48.723513288810295,68.58005044360277,7.150727272033691,-0.4843486547470093,6.266820907592773,0.04350637272000313,-0.3041764199733734,0.31052517890930176
2026-04-02 12:56:43.051,1544.056516813,187248483,left_foot,左脚,D4:22:CD:00:84:61,0.7609952688217163,0.203297421336174,-0.36027708649635315,0.49975666403770447,-4.406458244179366,-48.723679788629795,68.58307947636509,7.151484966278076,-0.4911724030971527,6.266332149505615,-0.023832619190216064,-0.19999036192893982,0.35281816124916077
2026-04-02 12:56:43.111,1544.116567,187281817,left_foot,左脚,D4:22:CD:00:84:61,0.7610140442848206,0.2032858282327652,-0.36026644706726074,0.4997406303882599,-4.405237537409563,-48.72186463580818,68.57945789931567,7.14591646194458,-0.4869202971458435,6.251245975494385,0.08756981790065765,-0.13067598640918732,0.22436083853244781
2026-04-02 12:56:43.141,1544.146594757,187315151,left_foot,左脚,D4:22:CD:00:84:61,0.761016845703125,0.20329740643501282,-0.3602692782878876,0.4997294545173645,-4.4032517084858664,-48.72303494955111,68.5772425128903,7.153535842895508,-0.48972761631011963,6.267176151275635,0.13461074233055115,-0.22148580849170685,0.23885443806648254
2026-04-02 12:56:43.171,1544.1767326,187348485,left_foot,左脚,D4:22:CD:00:84:61,0.761033833026886,0.20329783856868744,-0.3602728545665741,0.49970099329948425,-4.40116590638405,-48.72359257799869,68.57215472391195,7.153972148895264,-0.48025065660476685,6.270530700683594,0.08291151374578476,-0.1998751014471054,0.19314855337142944
2026-04-02 12:56:43.202,1544.207998677,187381819,left_foot,左脚,D4:22:CD:00:84:61,0.7610482573509216,0.20330657064914703,-0.36025160551071167,0.49969062209129333,-4.396865500600784,-48.72208898868105,68.56804796036776,7.165445327758789,-0.4798647165298462,6.270639896392822,0.1333877444267273,-0.1368742734193802,0.18397922813892365
2026-04-02 12:56:43.231,1544.236678249,187415153,left_foot,左脚,D4:22:CD:00:84:61,0.7610564231872559,0.20332078635692596,-0.3602515161037445,0.49967247247695923,-4.39364014859092,-48.72318056880331,68.56416256008607,7.151051998138428,-0.48495158553123474,6.253186225891113,0.13591699302196503,-0.2170548141002655,0.20900282263755798
2026-04-02 12:56:43.261,1544.266668424,187448487,left_foot,左脚,D4:22:CD:00:84:61,0.7610624432563782,0.20331993699073792,-0.360262930393219,0.4996553957462311,-4.393567398908801,-48.72439094800874,68.56197291143089,7.15770149230957,-0.48400595784187317,6.249256134033203,0.07322350144386292,-0.22252953052520752,0.23617148399353027
2026-04-02 12:56:43.291,1544.296551207,187481821,left_foot,左脚,D4:22:CD:00:84:61,0.7610628008842468,0.2033075988292694,-0.36027276515960693,0.49965283274650574,-4.395899500729514,-48.72454869557438,68.56274309878553,7.155897617340088,-0.47374555468559265,6.26986026763916,0.05784308537840843,-0.1949382722377777,0.2890617549419403
2026-04-02 12:56:43.321,1544.326482558,187515155,left_foot,左脚,D4:22:CD:00:84:61,0.7610545754432678,0.20330017805099487,-0.36029908061027527,0.4996492862701416,-4.399436514943904,-48.726751376356475,68.56464359731969,7.152870178222656,-0.4735519289970398,6.259767055511475,0.06823543459177017,-0.25913652777671814,0.32423439621925354
2026-04-02 12:56:43.350,1544.35539682,187548489,left_foot,左脚,D4:22:CD:00:84:61,0.7610763907432556,0.20326408743858337,-0.36029472947120667,0.49963417649269104,-4.401866950074125,-48.72385605513536,68.56251471098795,7.156094551086426,-0.4819386303424835,6.268047332763672,0.009620770812034607,-0.10055545717477798,0.2564823627471924
2026-04-02 12:56:43.381,1544.386385421,187581823,left_foot,左脚,D4:22:CD:00:84:61,0.7610906362533569,0.20323877036571503,-0.3602967858314514,0.4996214210987091,-4.403966262105559,-48.72236355064626,68.56107120578736,7.144641876220703,-0.4892287254333496,6.255031585693359,0.035425566136837006,-0.14374488592147827,0.26798245310783386
2026-04-02 12:56:43.440,1544.445246421,187615157,left_foot,左脚,D4:22:CD:00:84:61,0.7610998153686523,0.20320482552051544,-0.3603058159351349,0.4996143579483032,-4.408363305882676,-48.72096112507692,68.56162232245421,7.151233196258545,-0.49255260825157166,6.265709400177002,0.0039347512647509575,-0.14868810772895813,0.3004721701145172
2026-04-02 12:56:43.471,1544.476387215,187648491,left_foot,左脚,D4:22:CD:00:84:61,0.7611066699028015,0.2031889259815216,-0.3603253662586212,0.4995965361595154,-4.4108974483653824,-48.72194938719188,68.56046828745878,7.154820919036865,-0.48163849115371704,6.259707927703857,0.0354703851044178,-0.2187388837337494,0.2734699845314026
2026-04-02 12:56:43.501,1544.506427381,187681825,left_foot,左脚,D4:22:CD:00:84:61,0.761132538318634,0.2031775265932083,-0.3603031039237976,0.4995776414871216,-4.408109733596178,-48.718980727533555,68.55529210696196,7.154726505279541,-0.4933467507362366,6.252565860748291,0.07467062026262283,-0.09226974844932556,0.17783856391906738
2026-04-02 12:56:43.531,1544.536700373,187715159,left_foot,左脚,D4:22:CD:00:84:61,0.761157751083374,0.20316410064697266,-0.36027413606643677,0.49956557154655457,-4.405381925976511,-48.715138618281955,68.5508662853951,7.161355018615723,-0.47185373306274414,6.27168607711792,0.1255950778722763,-0.06959611177444458,0.22552302479743958
2026-04-02 12:56:43.560,1544.565411515,187748493,left_foot,左脚,D4:22:CD:00:84:61,0.7611795663833618,0.20315051078796387,-0.36026519536972046,0.49954429268836975,-4.404145341326663,-48.713392736619944,68.54647935043182,7.148097991943359,-0.4796874225139618,6.269080638885498,0.07041250169277191,-0.13159163296222687,0.21195468306541443
2026-04-02 12:56:43.591,1544.596536063,187781827,left_foot,左脚,D4:22:CD:00:84:61,0.7611861228942871,0.20314337313175201,-0.3602971136569977,0.4995141923427582,-4.406006594870173,-48.71634075150492,68.5438394460055,7.1489152908325195,-0.478401780128479,6.270453929901123,0.03968367725610733,-0.2762777805328369,0.2555539309978485
2026-04-02 12:56:43.621,1544.626671011,187815161,left_foot,左脚,D4:22:CD:00:84:61,0.7611932754516602,0.20313940942287445,-0.3603021204471588,0.49950122833251953,-4.405928767281429,-48.71665322137846,68.5419605562216,7.15248966217041,-0.49250274896621704,6.263426780700684,0.08747056871652603,-0.1969616562128067,0.25310149788856506
2026-04-02 12:56:43.651,1544.656448851,187848495,left_foot,左脚,D4:22:CD:00:84:61,0.7612116932868958,0.20311878621578217,-0.3603072166442871,0.49947795271873474,-4.406924582609443,-48.71586395167453,68.53865429313606,7.157716274261475,-0.4852162301540375,6.274807929992676,0.03613632172346115,-0.16281993687152863,0.23864953219890594
2026-04-02 12:56:43.681,1544.686567206,187881829,left_foot,左脚,D4:22:CD:00:84:61,0.7612151503562927,0.2031170278787613,-0.36030083894729614,0.4994780421257019,-4.406417583020027,-48.715084979931284,68.53815908916522,7.154994964599609,-0.4755765497684479,6.25860071182251,0.1300644725561142,-0.16632245481014252,0.2816660404205322
2026-04-02 12:56:43.740,1544.745432943,187915163,left_foot,左脚,D4:22:CD:00:84:61,0.7612345218658447,0.20310382544994354,-0.3602949380874634,0.4994581341743469,-4.405595922358046,-48.71367017812454,68.53428862564675,7.163518905639648,-0.4771465063095093,6.25951623916626,0.05162559077143669,-0.14129245281219482,0.20639671385288239
2026-04-02 12:56:43.771,1544.776414322,187948497,left_foot,左脚,D4:22:CD:00:84:61,0.7612582445144653,0.20311985909938812,-0.3602686822414398,0.4994344711303711,-4.398735401093253,-48.712234502712,68.52698470750346,7.153151512145996,-0.47776520252227783,6.258275032043457,0.16920709609985352,-0.1364196538925171,0.1508299857378006
2026-04-02 12:56:43.800,1544.805366649,187981831,left_foot,左脚,D4:22:CD:00:84:61,0.7612593770027161,0.20312950015068054,-0.3602775037288666,0.49942243099212646,-4.397573491983824,-48.71388500517768,68.52518920351534,7.140074253082275,-0.49047359824180603,6.2721476554870605,0.12709341943264008,-0.23741689324378967,0.25625184178352356
2026-04-02 12:56:43.831,1544.836545463,188015165,left_foot,左脚,D4:22:CD:00:84:61,0.7612724900245667,0.20314623415470123,-0.36028027534484863,0.4993935823440552,-4.393463640570154,-48.71550908595491,68.51946023567247,7.146301746368408,-0.4856691062450409,6.267951488494873,0.11766793578863144,-0.22988037765026093,0.1705261468887329
2026-04-02 12:56:43.861,1544.866594334,188048499,left_foot,左脚,D4:22:CD:00:84:61,0.7612890005111694,0.20316249132156372,-0.36028388142585754,0.49935927987098694,-4.389033161994531,-48.71721331154183,68.5127809504928,7.155429363250732,-0.48468872904777527,6.26145076751709,0.12384702265262604,-0.23212787508964539,0.16703002154827118
2026-04-02 12:56:43.890,1544.895460882,188081833,left_foot,左脚,D4:22:CD:00:84:61,0.7613009214401245,0.20313939452171326,-0.36027973890304565,0.4993535578250885,-4.390778616066462,-48.71520213368438,68.51205413229538,7.157233715057373,-0.4845599830150604,6.25920295715332,0.054750341922044754,-0.12889590859413147,0.2776832580566406
2026-04-02 12:56:43.920,1544.925431845,188115167,left_foot,左脚,D4:22:CD:00:84:61,0.7613155841827393,0.20313739776611328,-0.36028748750686646,0.4993264973163605,-4.389570752681324,-48.71601151502058,68.50768393330787,7.147885322570801,-0.4857616126537323,6.2546916007995605,0.0627991333603859,-0.20777662098407745,0.20040977001190186
2026-04-02 12:56:43.951,1544.956556588,188148501,left_foot,左脚,D4:22:CD:00:84:61,0.7613212466239929,0.20314030349254608,-0.36028915643692017,0.49931517243385315,-4.388459913745416,-48.71645882322896,68.50561832516568,7.148092746734619,-0.4862607419490814,6.269686698913574,0.10858183354139328,-0.20016323029994965,0.24368882179260254
2026-04-02 12:56:43.981,1544.986562126,188181835,left_foot,左脚,D4:22:CD:00:84:61,0.7613335847854614,0.2031450718641281,-0.3602991998195648,0.4992872178554535,-4.386643024975541,-48.71798316195878,68.5010713358719,7.149848461151123,-0.48474952578544617,6.272928714752197,0.07037408649921417,-0.2285228967666626,0.1895820051431656
2026-04-02 12:56:44.041,1545.046299948,188215169,left_foot,左脚,D4:22:CD:00:84:61,0.7613550424575806,0.20313401520252228,-0.3602883517742157,0.49926698207855225,-4.384980888962693,-48.71620841938233,68.49662523582397,7.1541595458984375,-0.47603073716163635,6.266489505767822,0.08532550185918808,-0.13140594959259033,0.21392686665058136
2026-04-02 12:56:44.071,1545.076507558,188248503,left_foot,左脚,D4:22:CD:00:84:61,0.7613638043403625,0.20313964784145355,-0.3603093922138214,0.49923622608184814,-4.384061262092299,-48.71893696469016,68.49249236357224,7.157777309417725,-0.488903284072876,6.2581071853637695,0.07961387932300568,-0.2670572102069855,0.21798010170459747
2026-04-02 12:56:44.101,1545.106422493,188281837,left_foot,左脚,D4:22:CD:00:84:61,0.7613816857337952,0.20313851535320282,-0.36028656363487244,0.4992256462574005,-4.380724954994808,-48.716581645788025,68.48852387121232,7.161879539489746,-0.4831078052520752,6.2465739250183105,0.12197726964950562,-0.11296480894088745,0.20329760015010834
2026-04-02 12:56:44.130,1545.135290891,188315171,left_foot,左脚,D4:22:CD:00:84:61,0.7613951563835144,0.20313750207424164,-0.36027124524116516,0.4992166757583618,-4.378348187692657,-48.71498758299698,68.48549933265016,7.1499176025390625,-0.4795929789543152,6.2523980140686035,0.12909121811389923,-0.13798201084136963,0.23316840827465057
2026-04-02 12:56:44.161,1545.1664202,188348505,left_foot,左脚,D4:22:CD:00:84:61,0.76141357421875,0.20313706994056702,-0.3602723181247711,0.499188095331192,-4.376074152132337,-48.715228941362156,68.4802004836852,7.145646572113037,-0.4701586067676544,6.278966903686523,0.08440986275672913,-0.19008465111255646,0.19243143498897552
2026-04-02 12:56:44.251,1545.256304369,188381839,left_foot,左脚,D4:22:CD:00:84:61,0.7614138126373291,0.20312336087226868,-0.3602871298789978,0.49918240308761597,-4.378867697085369,-48.71582734790365,68.480878625757,7.151762008666992,-0.48159709572792053,6.279580593109131,0.0550512932240963,-0.20897401869297028,0.2990506589412689
2026-04-02 12:56:44.252,1545.257496057,188415173,left_foot,左脚,D4:22:CD:00:84:61,0.7614323496818542,0.20311057567596436,-0.36028552055358887,0.499160498380661,-4.3783114258288665,-48.71489285260077,68.47699865346873,7.158292293548584,-0.49780091643333435,6.255458831787109,0.06315772235393524,-0.15706348419189453,0.2216106653213501
2026-04-02 12:56:44.281,1545.286419995,188448507,left_foot,左脚,D4:22:CD:00:84:61,0.7614459991455078,0.20309697091579437,-0.36026909947395325,0.49915701150894165,-4.377758520383944,-48.71227647637938,68.47531871764639,7.159118175506592,-0.48401105403900146,6.258702278137207,0.09331667423248291,-0.10881554335355759,0.25194892287254333
2026-04-02 12:56:44.282,1545.287548473,188481841,left_foot,左脚,D4:22:CD:00:84:61,0.7614636421203613,0.20309597253799438,-0.36027079820632935,0.49912938475608826,-4.375703175376693,-48.712536982773074,68.47027382128665,7.153863430023193,-0.47642725706100464,6.282975196838379,0.07561828941106796,-0.19066092371940613,0.1903439611196518
2026-04-02 12:56:44.341,1545.346570772,188515175,left_foot,左脚,D4:22:CD:00:84:61,0.7614484429359436,0.20298752188682556,-0.3603375554084778,0.4991483986377716,-4.397547540623745,-48.711689954627424,68.4831852682075,7.162276268005371,-0.48916566371917725,6.263808727264404,0.07079670578241348,-0.20660485327243805,0.19674715399742126
2026-04-02 12:56:44.371,1545.376453161,188548509,left_foot,左脚,D4:22:CD:00:84:61,0.7614792585372925,0.20298248529434204,-0.3603116273880005,0.4991222321987152,-4.392978810065756,-48.70882551633411,68.47610177442812,7.1528544425964355,-0.49677810072898865,6.272433280944824,0.11531797051429749,-0.09470295161008835,0.16280390322208405
2026-04-02 12:56:44.401,1545.406584857,188581843,left_foot,左脚,D4:22:CD:00:84:61,0.7614953517913818,0.20299728214740753,-0.36029455065727234,0.49910396337509155,-4.387763307636717,-48.70821445223773,68.4706766133915,7.153975009918213,-0.4863305985927582,6.267398357391357,0.15785424411296844,-0.16387005150318146,0.17776814103126526
2026-04-02 12:56:44.431,1545.436654256,188615177,left_foot,左脚,D4:22:CD:00:84:61,0.7615017890930176,0.20303137600421906,-0.3603174686431885,0.4990638196468353,-4.3829201308988335,-48.713181622203564,68.46404087336313,7.1494855880737305,-0.4757803976535797,6.275020599365234,0.12724709510803223,-0.32934728264808655,0.14787812530994415
2026-04-02 12:56:44.461,1545.466518824,188648511,left_foot,左脚,D4:22:CD:00:84:61,0.7614981532096863,0.20303334295749664,-0.36033594608306885,0.49905502796173096,-4.384025503676762,-48.71527116075232,68.46396355889034,7.149993419647217,-0.47159266471862793,6.262491703033447,0.10040497779846191,-0.25329676270484924,0.28705111145973206
2026-04-02 12:56:44.491,1545.496401841,188681845,left_foot,左脚,D4:22:CD:00:84:61,0.7614894509315491,0.2030254304409027,-0.3603721857070923,0.49904558062553406,-4.388220009022138,-48.71848599586919,68.46561896364115,7.149285793304443,-0.4754679799079895,6.244651794433594,0.05721556767821312,-0.29049283266067505,0.32778170704841614
2026-04-02 12:56:44.521,1545.526526769,188715179,left_foot,左脚,D4:22:CD:00:84:61,0.7614930868148804,0.2030111700296402,-0.3603802025318146,0.49903997778892517,-4.390316193979564,-48.71834463290693,68.46572196497655,7.15696907043457,-0.48131102323532104,6.2733025550842285,0.05488481745123863,-0.18547435104846954,0.278470903635025
2026-04-02 12:56:44.551,1545.556656821,188748513,left_foot,左脚,D4:22:CD:00:84:61,0.7615041136741638,0.20300205051898956,-0.36037296056747437,0.4990321397781372,-4.389897194681964,-48.71700703213728,68.46388443939378,7.159343719482422,-0.48673611879348755,6.270702362060547,0.09990552812814713,-0.14772124588489532,0.2546382248401642
2026-04-02 12:56:44.581,1545.586414844,188781847,left_foot,左脚,D4:22:CD:00:84:61,0.7615112066268921,0.2030041217803955,-0.360376238822937,0.4990180432796478,-4.388821278469333,-48.71757115961284,68.46144950491079,7.1541428565979,-0.4860963821411133,6.275099277496338,0.09014709293842316,-0.20244915783405304,0.22419755160808563
2026-04-02 12:56:44.641,1545.646444506,188815181,left_foot,左脚,D4:22:CD:00:84:61,0.7615249156951904,0.20300346612930298,-0.3603801131248474,0.4989946186542511,-4.3873320855344256,-48.71805712602375,68.45738519374271,7.1547322273254395,-0.4801625907421112,6.279867649078369,0.07799386978149414,-0.19881217181682587,0.20307347178459167
2026-04-02 12:56:44.671,1545.676453433,188848515,left_foot,左脚,D4:22:CD:00:84:61,0.7615395784378052,0.2030017077922821,-0.36036962270736694,0.49898040294647217,-4.385145776408141,-48.716942204267106,68.45383472924809,7.153316497802734,-0.4732719957828522,6.267323017120361,0.10781346261501312,-0.1514158844947815,0.21434946358203888
2026-04-02 12:56:44.702,1545.707068918,188881849,left_foot,左脚,D4:22:CD:00:84:61,0.7615484595298767,0.20299489796161652,-0.3603682518005371,0.4989706575870514,-4.384954858802671,-48.71637983078308,68.45208368923677,7.145474910736084,-0.4802989363670349,6.2717180252075195,0.08318044245243073,-0.17053575813770294,0.24427150189876556
2026-04-02 12:56:44.731,1545.736624662,188915183,left_foot,左脚,D4:22:CD:00:84:61,0.7615455389022827,0.20298688113689423,-0.36040130257606506,0.49895456433296204,-4.388239114328936,-48.719302614528395,68.45221442547845,7.157887935638428,-0.4742444157600403,6.272129535675049,0.020960791036486626,-0.2776864767074585,0.2730986177921295
2026-04-02 12:56:44.761,1545.76660668,188948517,left_foot,左脚,D4:22:CD:00:84:61,0.7615466713905334,0.2029799222946167,-0.36040738224983215,0.4989513158798218,-4.389460087005804,-48.7194574396316,68.45235492852528,7.1569719314575195,-0.4806157052516937,6.2683892250061035,0.06819701194763184,-0.1938432902097702,0.2665225565433502
2026-04-02 12:56:44.791,1545.796526139,188981851,left_foot,左脚,D4:22:CD:00:84:61,0.7615541219711304,0.2029489129781723,-0.36041271686553955,0.49894875288009644,-4.393472215152757,-48.71784865511557,68.45331554656723,7.1469268798828125,-0.49375084042549133,6.268510341644287,0.009422271512448788,-0.14293807744979858,0.29274997115135193
2026-04-02 12:56:44.821,1545.826311148,189015185,left_foot,左脚,D4:22:CD:00:84:61,0.7615650296211243,0.20293767750263214,-0.360413134098053,0.4989362061023712,-4.393768013600292,-48.71718158852442,68.45134552139483,7.158270835876465,-0.4823499023914337,6.262056827545166,0.0638236477971077,-0.16695639491081238,0.24011586606502533
2026-04-02 12:56:44.851,1545.85637064,189048519,left_foot,左脚,D4:22:CD:00:84:61,0.7615708112716675,0.20292823016643524,-0.36041897535324097,0.4989269971847534,-4.394745744873093,-48.717173337804894,68.45042002156464,7.154426097869873,-0.4750186800956726,6.253627777099609,0.06715968996286392,-0.18851585686206818,0.2595878839492798
2026-04-02 12:56:44.881,1545.886541271,189081853,left_foot,左脚,D4:22:CD:00:84:61,0.7615721225738525,0.20291535556316376,-0.36042025685310364,0.49892938137054443,-4.396599357683512,-48.716388416340436,68.45138449523772,7.146240234375,-0.48372137546539307,6.256787300109863,0.07036768645048141,-0.16721892356872559,0.28701910376548767
2026-04-02 12:56:44.941,1545.946357625,189115187,left_foot,左脚,D4:22:CD:00:84:61,0.7615766525268555,0.20292384922504425,-0.3604070544242859,0.49892857670783997,-4.3940481770573285,-48.71563156794519,68.4497959858872,7.153351783752441,-0.48171868920326233,6.264772891998291,0.16149766743183136,-0.16507384181022644,0.2509628236293793
2026-04-02 12:56:44.970,1545.975499514,189148521,left_foot,左脚,D4:22:CD:00:84:61,0.7615886330604553,0.20291024446487427,-0.3604201674461365,0.4989064037799835,-4.395222424178572,-48.71615212525563,68.44719157761058,7.142104148864746,-0.48189035058021545,6.264184951782227,0.029265709221363068,-0.2018536776304245,0.2302485555410385
2026-04-02 12:56:45.001,1546.006553124,189181855,left_foot,左脚,D4:22:CD:00:84:61,0.761587381362915,0.20291060209274292,-0.36043569445610046,0.4988970160484314,-4.396125257585967,-48.717823545788725,68.44677603774788,7.141170501708984,-0.47546064853668213,6.274963855743408,0.0763738676905632,-0.23903052508831024,0.2615344822406769
2026-04-02 12:56:45.031,1546.036376852,189215189,left_foot,左脚,D4:22:CD:00:84:61,0.7615886330604553,0.2029092013835907,-0.360445111989975,0.4988885819911957,-4.396637938456703,-48.718747839038855,68.44607686467154,7.142520904541016,-0.48134320974349976,6.264896392822266,0.0880020409822464,-0.2167026698589325,0.26296237111091614
2026-04-02 12:56:45.061,1546.066460774,189248523,left_foot,左脚,D4:22:CD:00:84:61,0.7615903615951538,0.20289850234985352,-0.36046841740608215,0.4988735318183899,-4.399227762571317,-48.72047648868494,68.44562701807772,7.149659156799316,-0.48162391781806946,6.265347003936768,0.02559669129550457,-0.24080419540405273,0.2609453797340393
2026-04-02 12:56:45.091,1546.096536366,189281857,left_foot,左脚,D4:22:CD:00:84:61,0.7615943551063538,0.2028888612985611,-0.3604752719402313,0.49886637926101685,-4.400518602176483,-48.72054737236566,68.44518696139694,7.156937599182129,-0.4802474081516266,6.268572807312012,0.03750019520521164,-0.18954677879810333,0.24160778522491455
2026-04-02 12:56:45.121,1546.126557489,189315191,left_foot,左脚,D4:22:CD:00:84:61,0.761596143245697,0.20288105309009552,-0.3604836165904999,0.49886080622673035,-4.401896536201153,-48.7208895053781,68.44511734587377,7.155774116516113,-0.47681060433387756,6.291938304901123,0.051945760846138,-0.19865210354328156,0.2558356821537018
2026-04-02 12:56:45.151,1546.156331526,189348525,left_foot,左脚,D4:22:CD:00:84:61,0.7616041898727417,0.20288985967636108,-0.3604806363582611,0.4988473057746887,-4.399369521313128,-48.721272581624554,68.44201314296899,7.161077976226807,-0.4699207842350006,6.282712936401367,0.11244935542345047,-0.19625090062618256,0.2061149924993515
2026-04-02 12:56:45.181,1546.186649609,189381859,left_foot,左脚,D4:22:CD:00:84:61,0.7616115808486938,0.20289723575115204,-0.36048781871795654,0.49882784485816956,-4.397651196731625,-48.722637902537244,68.43873858231115,7.155266761779785,-0.49495959281921387,6.268470764160156,0.08766266703605652,-0.22559666633605957,0.20363055169582367
2026-04-02 12:56:45.241,1546.246703808,189415193,left_foot,左脚,D4:22:CD:00:84:61,0.7616286277770996,0.2029041349887848,-0.3604715168476105,0.498810738325119,-4.393546999395545,-48.721547007697325,68.43385083797224,7.146535873413086,-0.4709717929363251,6.265292644500732,0.1218620240688324,-0.14954613149166107,0.17634020745754242
2026-04-02 12:56:45.272,1546.277289664,189448527,left_foot,左脚,D4:22:CD:00:84:61,0.7616364359855652,0.20289583504199982,-0.3604658246040344,0.4988062381744385,-4.393495776189674,-48.72040953645366,68.43276277922101,7.147990703582764,-0.4865143895149231,6.263478755950928,0.082027867436409,-0.1538042575120926,0.24815182387828827
2026-04-02 12:56:45.301,1546.306588677,189481861,left_foot,左脚,D4:22:CD:00:84:61,0.761641263961792,0.20290355384349823,-0.3604636490345001,0.49879729747772217,-4.391582725010776,-48.72077773444971,68.43063825620104,7.146594524383545,-0.4888925850391388,6.266793727874756,0.10476554185152054,-0.19663511216640472,0.21570053696632385
2026-04-02 12:56:45.331,1546.336744277,189515195,left_foot,左脚,D4:22:CD:00:84:61,0.7616422176361084,0.2029041349887848,-0.3604767620563507,0.49878618121147156,-4.39203987064268,-48.72222735565951,68.42967620836232,7.1510090827941895,-0.4945054352283478,6.2744269371032715,0.06447676569223404,-0.2310265302658081,0.2399173378944397
2026-04-02 12:56:45.361,1546.366648643,189548529,left_foot,左脚,D4:22:CD:00:84:61,0.7616612315177917,0.2028767317533493,-0.3604719340801239,0.4987717866897583,-4.393476495911724,-48.71989749858585,68.42739304407317,7.147670745849609,-0.4854772984981537,6.266380786895752,0.007981556467711926,-0.1161663755774498,0.22476744651794434
2026-04-02 12:56:45.391,1546.396260036,189581863,left_foot,左脚,D4:22:CD:00:84:61,0.7616703510284424,0.20287702977657318,-0.3604881465435028,0.4987458288669586,-4.393055027466278,-48.72173699453856,68.42392488929755,7.149176120758057,-0.47883984446525574,6.257451057434082,0.04756598174571991,-0.2400934249162674,0.20119734108448029
2026-04-02 12:56:45.422,1546.427410707,189615197,left_foot,左脚,D4:22:CD:00:84:61,0.7616792917251587,0.20287251472473145,-0.360495388507843,0.4987289011478424,-4.392949435030288,-48.72225919837191,68.42150221433222,7.147508144378662,-0.4815666973590851,6.27427864074707,0.059770431369543076,-0.2021034061908722,0.22290413081645966
2026-04-02 12:56:45.451,1546.456448702,189648531,left_foot,左脚,D4:22:CD:00:84:61,0.7616863250732422,0.20286540687084198,-0.3604898452758789,0.498725026845932,-4.392827939049962,-48.721215954478154,68.42050603742483,7.152158737182617,-0.4893306493759155,6.263612747192383,0.0785701647400856,-0.15638475120067596,0.24282440543174744
2026-04-02 12:56:45.481,1546.486625192,189681865,left_foot,左脚,D4:22:CD:00:84:61,0.7616811394691467,0.20287370681762695,-0.36050012707710266,0.4987220764160156,-4.392762952747892,-48.72287063773515,68.42059987851056,7.151609420776367,-0.48284912109375,6.257014751434326,0.09256110340356827,-0.23803161084651947,0.25022009015083313
2026-04-02 12:56:45.541,1546.546597225,189715199,left_foot,左脚,D4:22:CD:00:84:61,0.7616922855377197,0.20287567377090454,-0.36048999428749084,0.4987117350101471,-4.390503389213364,-48.72202366715447,68.4176789725083,7.153979778289795,-0.4812176823616028,6.272866249084473,0.11572778970003128,-0.16050198674201965,0.21849234402179718
2026-04-02 12:56:45.571,1546.576687913,189748533,left_foot,左脚,D4:22:CD:00:84:61,0.761715292930603,0.20286639034748077,-0.36046579480171204,0.49869784712791443,-4.387680723291541,-48.71897005633192,68.41320982143999,7.160925388336182,-0.4799666702747345,6.26442289352417,0.09227936714887619,-0.09161663800477982,0.18823093175888062
2026-04-02 12:56:45.601,1546.606656303,189781867,left_foot,左脚,D4:22:CD:00:84:61,0.7617253661155701,0.20286785066127777,-0.3604600727558136,0.4986860454082489,-4.385856088440451,-48.718551564466445,68.4104262094678,7.1359710693359375,-0.4811018109321594,6.279353141784668,0.09663991630077362,-0.17303940653800964,0.21258220076560974
2026-04-02 12:56:45.631,1546.636291901,189815201,left_foot,左脚,D4:22:CD:00:84:61,0.7617239356040955,0.2028529942035675,-0.36047452688217163,0.4986835718154907,-4.389020050955603,-48.719016904964626,68.411720028807,7.15232515335083,-0.48179200291633606,6.267451763153076,0.035547226667404175,-0.20519614219665527,0.28751859068870544
2026-04-02 12:56:45.660,1546.665604532,189848535,left_foot,左脚,D4:22:CD:00:84:61,0.7617365717887878,0.20285135507583618,-0.3604743480682373,0.49866530299186707,-4.38762434258317,-48.71898333420649,68.40829089920969,7.160187244415283,-0.48472848534584045,6.273234844207764,0.07602168619632721,-0.18404005467891693,0.20450137555599213
2026-04-02 12:56:45.691,1546.696668282,189881869,left_foot,左脚,D4:22:CD:00:84:61,0.7617193460464478,0.20285837352275848,-0.36049121618270874,0.4986764192581177,-4.389654837275195,-48.72114571916184,68.4116692700293,7.159720420837402,-0.48321831226348877,6.256232738494873,0.11852595210075378,-0.2594245970249176,0.3266739845275879
2026-04-02 12:56:45.721,1546.726578958,189915203,left_foot,左脚,D4:22:CD:00:84:61,0.7617186903953552,0.20286041498184204,-0.3604968190193176,0.49867263436317444,-4.389720235084436,-48.72188328701765,68.41137960163012,7.1537699699401855,-0.4711170196533203,6.2674946784973145,0.08686866611242294,-0.21076050400733948,0.2506938874721527
2026-04-02 12:56:45.751,1546.756418234,189948537,left_foot,左脚,D4:22:CD:00:84:61,0.7617270350456238,0.20284412801265717,-0.36049583554267883,0.4986672103404999,-4.3910548862722605,-48.720674732083125,68.41078236529775,7.158145427703857,-0.48645538091659546,6.265774250030518,0.0516384057700634,-0.15245318412780762,0.2574876546859741
2026-04-02 12:56:45.781,1546.786654398,189981871,left_foot,左脚,D4:22:CD:00:84:61,0.7617401480674744,0.20282810926437378,-0.3604740500450134,0.49866950511932373,-4.390673608380669,-48.71730288799463,68.40979148498465,7.154018878936768,-0.484221875667572,6.284772872924805,0.08038224279880524,-0.08630198985338211,0.24249781668186188
2026-04-02 12:56:45.841,1546.846228607,190015205,left_foot,左脚,D4:22:CD:00:84:61,0.7617467641830444,0.20283371210098267,-0.36048623919487,0.49864819645881653,-4.389572281645187,-48.71907163741418,68.40667392187919,7.153029918670654,-0.47822654247283936,6.277463436126709,0.06920871138572693,-0.23789717257022858,0.20220905542373657
2026-04-02 12:56:45.871,1546.876144844,190048539,left_foot,左脚,D4:22:CD:00:84:61,0.7617480754852295,0.20282331109046936,-0.36051619052886963,0.49862879514694214,-4.392504442413977,-48.72153064537113,68.40598315827742,7.153544902801514,-0.4829450249671936,6.274519443511963,0.005266610998660326,-0.2625173330307007,0.2505658268928528
2026-04-02 12:56:45.901,1546.90621528,190081873,left_foot,左脚,D4:22:CD:00:84:61,0.7617501616477966,0.20279328525066376,-0.36053475737571716,0.4986245334148407,-4.397744743132192,-48.72135832970243,68.40775813743736,7.155918598175049,-0.4828668534755707,6.266815662384033,-0.020202016457915306,-0.1866077333688736,0.2949526309967041
2026-04-02 12:56:45.963,1546.968127736,190115207,left_foot,左脚,D4:22:CD:00:84:61,0.7617443799972534,0.20278489589691162,-0.3605499863624573,0.4986255466938019,-4.400535367110234,-48.722334641983664,68.40957364038708,7.154382705688477,-0.48263633251190186,6.266824245452881,0.0656101405620575,-0.2219468355178833,0.3028221130371094
2026-04-02 12:56:45.963,1546.968737651,190148541,left_foot,左脚,D4:22:CD:00:84:61,0.7617430686950684,0.2027641385793686,-0.360554575920105,0.4986325800418854,-4.4040878092911795,-48.72131571255863,68.4119679599165,7.1579060554504395,-0.47363290190696716,6.240377902984619,0.04631095752120018,-0.1623268574476242,0.310672402381897
2026-04-02 12:56:45.990,1546.995130094,190181875,left_foot,左脚,D4:22:CD:00:84:61,0.7617508172988892,0.20277085900306702,-0.36055272817611694,0.4986194670200348,-4.401968529491363,-48.721668826320595,68.40910851826769,7.148309230804443,-0.4915425479412079,6.280139923095703,0.09799739718437195,-0.1955721527338028,0.20408518612384796
2026-04-02 12:56:46.020,1547.025374218,190215209,left_foot,左脚,D4:22:CD:00:84:61,0.761763334274292,0.20275528728961945,-0.36054113507270813,0.49861499667167664,-4.402107826367824,-48.71941681749151,68.4077338023034,7.146993160247803,-0.4869685769081116,6.257709980010986,0.06929195672273636,-0.12009153515100479,0.2441050112247467
2026-04-02 12:56:46.050,1547.055330795,190248543,left_foot,左脚,D4:22:CD:00:84:61,0.7617651224136353,0.2027578502893448,-0.36052942276000977,0.4986199736595154,-4.4009057358129695,-48.718358012479584,68.40754074834298,7.1516008377075195,-0.4786395728588104,6.269628047943115,0.12770171463489532,-0.1571274995803833,0.2574300169944763
2026-04-02 12:56:46.082,1547.08731698,190281877,left_foot,左脚,D4:22:CD:00:84:61,0.7617602944374084,0.2027490884065628,-0.36054083704948425,0.4986225366592407,-4.403439912381286,-48.71890530209528,68.40931752764281,7.136639595031738,-0.47402477264404297,6.263611316680908,0.06940721720457077,-0.20872430503368378,0.3002929091453552
2026-04-02 12:56:46.141,1547.146106464,190315211,left_foot,左脚,D4:22:CD:00:84:61,0.7617631554603577,0.20275750756263733,-0.3605288565158844,0.49862322211265564,-4.401168667732042,-48.71826451307985,68.4081332826848,7.15231990814209,-0.47734856605529785,6.271791458129883,0.1466551125049591,-0.16861481964588165,0.2447773665189743
2026-04-02 12:56:46.170,1547.17521203,190348545,left_foot,左脚,D4:22:CD:00:84:61,0.7617552280426025,0.20274882018566132,-0.36055493354797363,0.4986201822757721,-4.404857614496164,-48.720347679659255,68.41012829281274,7.1472625732421875,-0.48714950680732727,6.260099411010742,0.041399724781513214,-0.25519853830337524,0.3026236593723297
2026-04-02 12:56:46.200,1547.205324634,190381879,left_foot,左脚,D4:22:CD:00:84:61,0.7617741227149963,0.2027290165424347,-0.36054325103759766,0.49860772490501404,-4.4048012425623995,-48.717837377049676,68.40737212499623,7.1555609703063965,-0.49287131428718567,6.260288715362549,0.02877907268702984,-0.10932781547307968,0.20415563881397247
2026-04-02 12:56:46.230,1547.235350041,190415213,left_foot,左脚,D4:22:CD:00:84:61,0.7617968320846558,0.20272274315357208,-0.36053523421287537,0.49858149886131287,-4.4023901553845235,-48.71672404335194,68.4019004597254,7.146352767944336,-0.4954245090484619,6.264606952667236,0.060096994042396545,-0.14848321676254272,0.1665305644273758
2026-04-02 12:56:46.261,1547.266214899,190448547,left_foot,左脚,D4:22:CD:00:84:61,0.7618036270141602,0.20271959900856018,-0.36051902174949646,0.4985840320587158,-4.401152557881367,-48.71482702394712,68.40105011516518,7.147938251495361,-0.4819478690624237,6.272132873535156,0.11274387687444687,-0.1309577226638794,0.24495665729045868
2026-04-02 12:56:46.291,1547.296321186,190481881,left_foot,左脚,D4:22:CD:00:84:61,0.7618139386177063,0.20271922647953033,-0.36051103472709656,0.4985741078853607,-4.399452521168757,-48.71404046279844,68.39848732247967,7.150393962860107,-0.4689480662345886,6.260241985321045,0.09419389069080353,-0.16195549070835114,0.21390125155448914
2026-04-02 12:56:46.321,1547.32640416,190515215,left_foot,左脚,D4:22:CD:00:84:61,0.7618064284324646,0.20273767411708832,-0.36046716570854187,0.49860984086990356,-4.395403980786596,-48.7106191447672,68.40077487127171,7.154011249542236,-0.48417019844055176,6.264535427093506,0.09955976903438568,-0.18919458985328674,0.2362547218799591
2026-04-02 12:56:46.352,1547.357537126,190548549,left_foot,左脚,D4:22:CD:00:84:61,0.761809229850769,0.20274882018566132,-0.36045005917549133,0.49861353635787964,-4.39248431061891,-48.709617457576975,68.39960145225534,7.154204368591309,-0.48797526955604553,6.258609294891357,0.15200817584991455,-0.15755011141300201,0.23321960866451263
2026-04-02 12:56:46.381,1547.386561719,190581883,left_foot,左脚,D4:22:CD:00:84:61,0.7618235945701599,0.20274317264556885,-0.3604344129562378,0.49860528111457825,-4.3906780399038166,-48.70766151631894,68.39683311785971,7.1569905281066895,-0.47639551758766174,6.28520393371582,0.09224093705415726,-0.12724389135837555,0.21241573989391327
2026-04-02 12:56:46.443,1547.448331787,190615217,left_foot,左脚,D4:22:CD:00:84:61,0.76182621717453,0.20275692641735077,-0.3604467511177063,0.4985867142677307,-4.388870856855117,-48.709998150026166,68.39398597881468,7.146519184112549,-0.47298380732536316,6.259920120239258,0.08808527886867523,-0.2553970515727997,0.19947490096092224
2026-04-02 12:56:46.471,1547.476439207,190648551,left_foot,左脚,D4:22:CD:00:84:61,0.7618250250816345,0.20275431871414185,-0.36045554280281067,0.4985830783843994,-4.389860005492481,-48.71074337803865,68.39416793224152,7.159451484680176,-0.4923761487007141,6.266380786895752,0.0440378338098526,-0.2104211151599884,0.23804759979248047
2026-04-02 12:56:46.501,1547.506293224,190681885,left_foot,左脚,D4:22:CD:00:84:61,0.7618419528007507,0.20273926854133606,-0.36044037342071533,0.49857425689697266,-4.389164755135233,-48.70818521299776,68.39163909137221,7.157281398773193,-0.4870474934577942,6.276122570037842,0.05711311474442482,-0.1089756190776825,0.21317769587039948
2026-04-02 12:56:46.531,1547.536487757,190715219,left_foot,左脚,D4:22:CD:00:84:61,0.7618452310562134,0.20274493098258972,-0.3604326546192169,0.4985726475715637,-4.387491778434772,-48.70779486260401,68.39046750326524,7.156294822692871,-0.4765367805957794,6.272585391998291,0.12809230387210846,-0.17680443823337555,0.2438873052597046
2026-04-02 12:56:46.591,1547.596225199,190748553,left_foot,左脚,D4:22:CD:00:84:61,0.761838436126709,0.2027420699596405,-0.360434889793396,0.49858248233795166,-4.388921012740422,-48.70777003963506,68.39261806150779,7.1562042236328125,-0.47754549980163574,6.268269062042236,0.10173683613538742,-0.1921464502811432,0.30140700936317444
2026-04-02 12:56:46.592,1547.597321521,190781887,left_foot,左脚,D4:22:CD:00:84:61,0.7618446946144104,0.20273754000663757,-0.3604286015033722,0.4985792934894562,-4.3884724674548075,-48.70682628697414,68.39160408532553,7.154275894165039,-0.4819529354572296,6.264712333679199,0.08103857934474945,-0.15939103066921234,0.2364308089017868
2026-04-02 12:56:46.621,1547.626579458,190815221,left_foot,左脚,D4:22:CD:00:84:61,0.761859655380249,0.2027246654033661,-0.3604205250740051,0.49856752157211304,-4.38806698481315,-48.70516415567995,68.38907286356458,7.147761821746826,-0.48178306221961975,6.277064323425293,0.05637674778699875,-0.136317178606987,0.21760228276252747
2026-04-02 12:56:46.651,1547.656648439,190848555,left_foot,左脚,D4:22:CD:00:84:61,0.7618615627288818,0.2027527391910553,-0.36042067408561707,0.4985530972480774,-4.383562195992732,-48.70722492630978,68.3854760217907,7.14738655090332,-0.4823358952999115,6.2783589363098145,0.1552545726299286,-0.24615083634853363,0.18773147463798523
2026-04-02 12:56:46.681,1547.686526604,190881889,left_foot,左脚,D4:22:CD:00:84:61,0.7618799209594727,0.20273861289024353,-0.3604184687137604,0.49853241443634033,-4.383202795941086,-48.70612890626891,68.38181932126312,7.152215957641602,-0.4849337041378021,6.266116142272949,0.024328863248229027,-0.15137743949890137,0.18910177052021027
2026-04-02 12:56:46.741,1547.746571275,190915223,left_foot,左脚,D4:22:CD:00:84:61,0.7618879079818726,0.2027333676815033,-0.36042994260787964,0.4985139071941376,-4.383532241327459,-48.707050169428115,68.37951159723463,7.143331527709961,-0.4811764657497406,6.2654571533203125,0.04010628163814545,-0.21396207809448242,0.21675704419612885
2026-04-02 12:56:46.771,1547.776591942,190948557,left_foot,左脚,D4:22:CD:00:84:61,0.7618910670280457,0.20272672176361084,-0.3604310154914856,0.4985109269618988,-4.384179683472576,-48.70671475871088,68.3792579785636,7.143796443939209,-0.4879355728626251,6.260991096496582,0.061678577214479446,-0.17869338393211365,0.24660225212574005
2026-04-02 12:56:46.801,1547.80625081,190981891,left_foot,左脚,D4:22:CD:00:84:61,0.7618814706802368,0.2027154266834259,-0.36045223474502563,0.4985150992870331,-4.3882389851410215,-48.70807394997848,68.3822609420067,7.146451473236084,-0.4783356189727783,6.2593159675598145,0.051305439323186874,-0.2356112152338028,0.3226143717765808
2026-04-02 12:56:46.831,1547.836515653,191015225,left_foot,左脚,D4:22:CD:00:84:61,0.761888325214386,0.2027347981929779,-0.3604412376880646,0.4985048770904541,-4.38385367913067,-48.708353419956865,68.37873757562228,7.1583571434021,-0.4856574237346649,6.242952823638916,0.15294940769672394,-0.1929084211587906,0.19282838702201843
2026-04-02 12:56:46.861,1547.866608158,191048559,left_foot,左脚,D4:22:CD:00:84:61,0.7619011998176575,0.2027459293603897,-0.36043328046798706,0.4984862804412842,-4.380070702561761,-48.70842479350599,68.37418075871247,7.156408786773682,-0.47993993759155273,6.269942760467529,0.09599960595369339,-0.1838671714067459,0.15880194306373596
2026-04-02 12:56:46.891,1547.896649398,191081893,left_foot,左脚,D4:22:CD:00:84:61,0.7619065642356873,0.202764093875885,-0.36043304204940796,0.49847087264060974,-4.3765992506064855,-48.709758403779354,68.37067655527458,7.149839878082275,-0.4785376489162445,6.2639899253845215,0.12326432019472122,-0.22429679334163666,0.18849985301494598
2026-04-02 12:56:46.921,1547.926364889,191115227,left_foot,左脚,D4:22:CD:00:84:61,0.7619228363037109,0.20277060568332672,-0.3604224622249603,0.4984508454799652,-4.3729408795257525,-48.709245666602705,68.36576452705683,7.1642069816589355,-0.4739922881126404,6.2682061195373535,0.11005456745624542,-0.16759029030799866,0.1758599877357483
2026-04-02 12:56:46.951,1547.956418923,191148561,left_foot,左脚,D4:22:CD:00:84:61,0.7619321942329407,0.20277027785778046,-0.36040300130844116,0.49845099449157715,-4.3707962144141685,-48.70721717772571,68.36407026562321,7.148332118988037,-0.47165346145629883,6.281157493591309,0.11809054017066956,-0.1259632408618927,0.2266179472208023
2026-04-02 12:56:46.981,1547.986707886,191181895,left_foot,左脚,D4:22:CD:00:84:61,0.7619242072105408,0.20278504490852356,-0.360426664352417,0.49843987822532654,-4.3707833665690865,-48.7107484457265,68.36360628251148,7.161209583282471,-0.47733643651008606,6.267677307128906,0.08984613418579102,-0.29477012157440186,0.24515515565872192
2026-04-02 12:56:47.041,1548.046439603,191215229,left_foot,左脚,D4:22:CD:00:84:61,0.7619141340255737,0.2027830332517624,-0.360469788312912,0.4984249770641327,-4.374594821674263,-48.715120754708444,68.36465941214202,7.154548645019531,-0.4739324450492859,6.252945423126221,0.01875169761478901,-0.3227328360080719,0.28170448541641235
2026-04-02 12:56:47.071,1548.076482166,191248563,left_foot,左脚,D4:22:CD:00:84:61,0.76191645860672,0.20277275145053864,-0.36046987771987915,0.49842557311058044,-4.375860092876837,-48.71440705000993,68.365102665404,7.155379295349121,-0.49363282322883606,6.266496658325195,0.06083336099982262,-0.16832023859024048,0.2623348832130432
2026-04-02 12:56:47.101,1548.106509181,191281897,left_foot,左脚,D4:22:CD:00:84:61,0.7619191408157349,0.20277100801467896,-0.3604717254638672,0.4984208345413208,-4.375867986767642,-48.71450241676364,68.36442673111563,7.151644229888916,-0.46843087673187256,6.2579498291015625,0.07926811277866364,-0.1911475956439972,0.24378490447998047
2026-04-02 12:56:47.131,1548.136474399,191315231,left_foot,左脚,D4:22:CD:00:84:61,0.7619310021400452,0.20277002453804016,-0.3604593575000763,0.4984121322631836,-4.373846638453192,-48.71321126066935,68.3617173487692,7.146470069885254,-0.48646995425224304,6.251126289367676,0.10065469890832901,-0.1470809131860733,0.2125757932662964
2026-04-02 12:56:47.191,1548.19636554,191348565,left_foot,左脚,D4:22:CD:00:84:61,0.7619351148605347,0.20278868079185486,-0.3604646921157837,0.49839431047439575,-4.370740331969235,-48.71516745076721,68.35823890969559,7.149759292602539,-0.4790097177028656,6.288653373718262,0.10466950386762619,-0.24226412177085876,0.18052791059017181
2026-04-02 12:56:47.191,1548.196920312,191381899,left_foot,左脚,D4:22:CD:00:84:61,0.7619324326515198,0.20280961692333221,-0.3604632019996643,0.49839118123054504,-4.367844887387168,-48.71649059151327,68.35684252471712,7.135128974914551,-0.4888317883014679,6.273066520690918,0.15329520404338837,-0.22737033665180206,0.23013970255851746
2026-04-02 12:56:47.221,1548.226691345,191415233,left_foot,左脚,D4:22:CD:00:84:61,0.7619348168373108,0.20282931625843048,-0.36046263575553894,0.49837958812713623,-4.364491752809564,-48.71788391188759,68.3540012624599,7.150477886199951,-0.4790940284729004,6.265597343444824,0.13219034671783447,-0.22677485644817352,0.19934046268463135
2026-04-02 12:56:47.251,1548.256583448,191448567,left_foot,左脚,D4:22:CD:00:84:61,0.7619328498840332,0.2028312236070633,-0.360476553440094,0.4983718991279602,-4.365172298748489,-48.719487297168264,68.35370897777977,7.155191421508789,-0.48695963621139526,6.258275032043457,0.06084616854786873,-0.23651406168937683,0.24251064658164978
2026-04-02 12:56:47.281,1548.286476071,191481901,left_foot,左脚,D4:22:CD:00:84:61,0.7619391679763794,0.2028362900018692,-0.3604814410209656,0.4983564615249634,-4.363814805242101,-48.72043615690117,68.35107581417007,7.151520729064941,-0.47896501421928406,6.274682998657227,0.07012436538934708,-0.21331536769866943,0.1980597972869873
2026-04-02 12:56:47.341,1548.346701756,191515235,left_foot,左脚,D4:22:CD:00:84:61,0.7619389891624451,0.20281419157981873,-0.36048391461372375,0.49836403131484985,-4.36732769483276,-48.71910016000944,68.35341652642326,7.155364990234375,-0.4823892414569855,6.261590480804443,0.04617009311914444,-0.153362438082695,0.30991047620773315
2026-04-02 12:56:47.371,1548.376604996,191548569,left_foot,左脚,D4:22:CD:00:84:61,0.7619330286979675,0.20281141996383667,-0.3604978621006012,0.4983642101287842,-4.369235742581956,-48.72033741230933,68.35476777046824,7.149272918701172,-0.4792350232601166,6.267482280731201,0.07742398232221603,-0.22916322946548462,0.289605975151062
2026-04-02 12:56:47.401,1548.406478247,191581903,left_foot,左脚,D4:22:CD:00:84:61,0.7619225382804871,0.2028009593486786,-0.3605172336101532,0.4983706772327423,-4.37318787304675,-48.72155447919835,68.35801922658912,7.169412136077881,-0.4763329327106476,6.2660746574401855,0.04823831468820572,-0.23066794872283936,0.3179144263267517
2026-04-02 12:56:47.431,1548.436621536,191615237,left_foot,左脚,D4:22:CD:00:84:61,0.7619289755821228,0.2027980536222458,-0.36050093173980713,0.49837368726730347,-4.371955641104027,-48.71966265797923,68.35724718155862,7.159339904785156,-0.4878930151462555,6.243589401245117,0.12080548703670502,-0.13209109008312225,0.2516863942146301
2026-04-02 12:56:47.461,1548.466478269,191648571,left_foot,左脚,D4:22:CD:00:84:61,0.7619492411613464,0.20280040800571442,-0.36047500371932983,0.4983605444431305,-4.367639875673463,-48.717238242130016,68.35239892144808,7.145473003387451,-0.47091996669769287,6.2739458084106445,0.11010579764842987,-0.10925738513469696,0.16321374475955963
2026-04-02 12:56:47.494,1548.499424469,191681905,left_foot,左脚,D4:22:CD:00:84:61,0.761954128742218,0.20281578600406647,-0.36045533418655396,0.49836093187332153,-4.363661368876193,-48.7162930140261,68.35025628136158,7.151278972625732,-0.47626855969429016,6.262471675872803,0.16442391276359558,-0.15762056410312653,0.21631523966789246
2026-04-02 12:56:47.521,1548.526405222,191715239,left_foot,左脚,D4:22:CD:00:84:61,0.7619461417198181,0.20281396806240082,-0.3604881167411804,0.49835026264190674,-4.366647153643776,-48.71959222713371,68.35118757696944,7.146762371063232,-0.48156848549842834,6.2776689529418945,0.027658512815833092,-0.2894875109195709,0.27012112736701965
2026-04-02 12:56:47.551,1548.556305234,191748573,left_foot,左脚,D4:22:CD:00:84:61,0.7619441151618958,0.2028127908706665,-0.3604944944381714,0.49834921956062317,-4.36741354813979,-48.72017121000514,68.35159132206532,7.152136325836182,-0.48981672525405884,6.248976230621338,0.07501000165939331,-0.20684175193309784,0.2591140866279602
2026-04-02 12:56:47.581,1548.586569642,191781907,left_foot,左脚,D4:22:CD:00:84:61,0.7619507908821106,0.20280501246452332,-0.36049550771713257,0.4983416497707367,-4.367786935793467,-48.71977006401653,68.35048488463697,7.15716028213501,-0.48199763894081116,6.252063274383545,0.06118553504347801,-0.1758567988872528,0.23847664892673492
2026-04-02 12:56:47.641,1548.646298745,191815241,left_foot,左脚,D4:22:CD:00:84:61,0.7619668245315552,0.2027912586927414,-0.3604651093482971,0.4983445107936859,-4.3662316159023655,-48.715674962945556,68.34878858806553,7.153759956359863,-0.4835069179534912,6.264340400695801,0.10584767907857895,-0.06448636949062347,0.23526224493980408
2026-04-02 12:56:47.701,1548.70650038,191848575,left_foot,左脚,D4:22:CD:00:84:61,0.7619619369506836,0.202779620885849,-0.36047348380088806,0.4983508288860321,-4.3690723198598755,-48.715681603536936,68.35107867338212,7.151284217834473,-0.4825379550457001,6.249927043914795,0.061319999396800995,-0.19319018721580505,0.3036417067050934
2026-04-02 12:56:47.701,1548.707047233,191881909,left_foot,左脚,D4:22:CD:00:84:61,0.7619649171829224,0.2027844786643982,-0.3604622781276703,0.4983523488044739,-4.367374046317232,-48.7148626432952,68.35022608749716,7.153204917907715,-0.4818420708179474,6.277693748474121,0.12026762962341309,-0.16290956735610962,0.23611384630203247
2026-04-02 12:56:47.733,1548.738340466,191915243,left_foot,左脚,D4:22:CD:00:84:61,0.7619652152061462,0.20279408991336823,-0.36045366525650024,0.4983541965484619,-4.365436972489323,-48.714639460786245,68.34951196252402,7.157021999359131,-0.48348745703697205,6.268585681915283,0.15729080140590668,-0.18306036293506622,0.2615728974342346
2026-04-02 12:56:47.761,1548.766204996,191948577,left_foot,左脚,D4:22:CD:00:84:61,0.7619752883911133,0.20280659198760986,-0.3604426980018616,0.4983415901660919,-4.361663082486061,-48.71445995682864,68.3457714272549,7.163531303405762,-0.48634451627731323,6.269559860229492,0.12327712774276733,-0.17822596430778503,0.1826857626438141
2026-04-02 12:56:47.821,1548.826597723,191981911,left_foot,左脚,D4:22:CD:00:84:61,0.7619799971580505,0.2028001993894577,-0.36044707894325256,0.4983339011669159,-4.362246309271565,-48.7145053147933,68.34490356170878,7.145589351654053,-0.4808031916618347,6.264365196228027,0.058169640600681305,-0.18934829533100128,0.2403399497270584
2026-04-02 12:56:47.822,1548.82721792,192015245,left_foot,左脚,D4:22:CD:00:84:61,0.7619757056236267,0.20279045403003693,-0.3604453206062317,0.49834567308425903,-4.364197168909456,-48.713576941686284,68.347280775827,7.150458335876465,-0.47991272807121277,6.255040645599365,0.09256108850240707,-0.16520190238952637,0.30832889676094055
2026-04-02 12:56:47.851,1548.856353682,192048579,left_foot,左脚,D4:22:CD:00:84:61,0.7619729042053223,0.20278967916965485,-0.3604555130004883,0.4983428120613098,-4.365192323046612,-48.71458824008528,68.347669869799,7.1536335945129395,-0.4761204421520233,6.265669345855713,0.07369093596935272,-0.22013476490974426,0.26323774456977844
2026-04-02 12:56:47.881,1548.88661102,192081913,left_foot,左脚,D4:22:CD:00:84:61,0.761969804763794,0.20279617607593536,-0.3604506850242615,0.49834856390953064,-4.364374021900986,-48.71450948723436,68.34811474315505,7.153680324554443,-0.4888302981853485,6.27190637588501,0.13306115567684174,-0.18794597685337067,0.26926949620246887
2026-04-02 12:56:47.941,1548.946541606,192115247,left_foot,左脚,D4:22:CD:00:84:61,0.761982262134552,0.2027861773967743,-0.36043912172317505,0.4983418583869934,-4.363676305884357,-48.712663454324485,68.34614929810087,7.1551289558410645,-0.49210935831069946,6.251707553863525,0.08576732128858566,-0.1319502294063568,0.23530706763267517
2026-04-02 12:56:47.972,1548.977435066,192148581,left_foot,左脚,D4:22:CD:00:84:61,0.7619854807853699,0.20281043648719788,-0.3604452908039093,0.498322457075119,-4.359873303689963,-48.71510697812218,68.3422723936001,7.139699459075928,-0.47598424553871155,6.261132717132568,0.12142659723758698,-0.25670325756073,0.1750531941652298
2026-04-02 12:56:48.001,1549.00631843,192181915,left_foot,左脚,D4:22:CD:00:84:61,0.7619810700416565,0.20280535519123077,-0.3604719638824463,0.4983119070529938,-4.36256916587493,-48.71755386003201,68.34279910708752,7.1513237953186035,-0.47931191325187683,6.250568389892578,0.031109824776649475,-0.26370835304260254,0.2667786478996277
2026-04-02 12:56:48.031,1549.036396818,192215249,left_foot,左脚,D4:22:CD:00:84:61,0.7619873285293579,0.20280422270298004,-0.3604774475097656,0.4982990324497223,-4.362213126602355,-48.718106810537996,68.34087579563688,7.161745071411133,-0.48708122968673706,6.257232666015625,0.0723462626338005,-0.2036529779434204,0.2272326648235321
2026-04-02 12:56:48.061,1549.066502438,192248583,left_foot,左脚,D4:22:CD:00:84:61,0.7619888782501221,0.20279653370380402,-0.360474169254303,0.49830198287963867,-4.363003399613687,-48.7172201861391,68.34139736426208,7.1498613357543945,-0.4867933392524719,6.271677017211914,0.08654210716485977,-0.16387005150318146,0.27247747778892517
2026-04-02 12:56:48.092,1549.097241542,192281917,left_foot,左脚,D4:22:CD:00:84:61,0.7619892954826355,0.20280256867408752,-0.36049360036849976,0.49828484654426575,-4.363016711295702,-48.71973569605073,68.33968497442517,7.155595779418945,-0.4771733283996582,6.2661285400390625,0.052304331213235855,-0.26164010167121887,0.2149769812822342
2026-04-02 12:56:48.121,1549.126306636,192315251,left_foot,左脚,D4:22:CD:00:84:61,0.7619958519935608,0.20280730724334717,-0.3605010509490967,0.4982675611972809,-4.361820799705136,-48.720929640881906,68.33692516371374,7.156486988067627,-0.479269415140152,6.254243850708008,0.07144982367753983,-0.22104398906230927,0.20220904052257538
2026-04-02 12:56:48.151,1549.156650215,192348585,left_foot,左脚,D4:22:CD:00:84:61,0.7620060443878174,0.20279426872730255,-0.3604871332645416,0.49826720356941223,-4.361758711730799,-48.718594309909655,68.33605014093821,7.158255100250244,-0.48068851232528687,6.2596001625061035,0.0706174224615097,-0.11756870150566101,0.24084584414958954
2026-04-02 12:56:48.181,1549.186479058,192381919,left_foot,左脚,D4:22:CD:00:84:61,0.7620152831077576,0.2027740478515625,-0.36048004031181335,0.49826669692993164,-4.3632814095598365,-48.71644923613354,68.33595218176364,7.159878253936768,-0.4733235538005829,6.258938312530518,0.05202259495854378,-0.12525250017642975,0.2641213536262512
2026-04-02 12:56:48.241,1549.246676187,192415253,left_foot,左脚,D4:22:CD:00:84:61,0.7620148062705994,0.20277443528175354,-0.3604784905910492,0.4982682764530182,-4.36319996753059,-48.71631079992023,68.33610814628967,7.155951499938965,-0.4837571382522583,6.2681989669799805,0.10476554185152054,-0.18550637364387512,0.2637179493904114
2026-04-02 12:56:48.271,1549.276531056,192448587,left_foot,左脚,D4:22:CD:00:84:61,0.7620161771774292,0.20278149843215942,-0.3604657053947449,0.49827268719673157,-4.361307096649476,-48.71546253365693,68.3355814699171,7.154079437255859,-0.49315541982650757,6.2611613273620605,0.1417502760887146,-0.1632361263036728,0.2498294860124588
2026-04-02 12:56:48.301,1549.306499399,192481921,left_foot,左脚,D4:22:CD:00:84:61,0.7620235681533813,0.20279841125011444,-0.3604298233985901,0.49828028678894043,-4.355944220189866,-48.712918857411694,68.33332564686376,7.142345905303955,-0.4824965298175812,6.270757675170898,0.19706089794635773,-0.10905247181653976,0.21205714344978333
2026-04-02 12:56:48.331,1549.336374703,192515255,left_foot,左脚,D4:22:CD:00:84:61,0.7620249390602112,0.20283381640911102,-0.3604274094104767,0.4982655346393585,-4.350261252271239,-48.715228777316646,68.32920726945285,7.143881797790527,-0.47904011607170105,6.2711567878723145,0.1779666393995285,-0.25247079133987427,0.17500197887420654
2026-04-02 12:56:48.362,1549.367583504,192548589,left_foot,左脚,D4:22:CD:00:84:61,0.7620137333869934,0.20283441245555878,-0.3604470491409302,0.49826812744140625,-4.3526231257134995,-48.717275641303765,68.3314164514259,7.147091865539551,-0.4702082574367523,6.260534286499023,0.08178454637527466,-0.25416120886802673,0.3025980293750763
2026-04-02 12:56:48.391,1549.396520253,192581923,left_foot,左脚,D4:22:CD:00:84:61,0.7620171308517456,0.2028370052576065,-0.3604550063610077,0.4982564151287079,-4.35220465038835,-48.71833402894302,68.32980741395957,7.152779579162598,-0.4744482636451721,6.265987396240234,0.07592564821243286,-0.2189885973930359,0.2273927628993988
2026-04-02 12:56:48.421,1549.426643987,192615257,left_foot,左脚,D4:22:CD:00:84:61,0.7620217204093933,0.2028173953294754,-0.36045295000076294,0.4982585608959198,-4.3544654218908505,-48.716747622827235,68.33066943871766,7.152795314788818,-0.486349880695343,6.246860027313232,0.04725222662091255,-0.1430085003376007,0.278502881526947
2026-04-02 12:56:48.451,1549.456209903,192648591,left_foot,左脚,D4:22:CD:00:84:61,0.7620297074317932,0.2028249055147171,-0.3604421019554138,0.4982513189315796,-4.351741549169697,-48.71619482726404,68.32809649621974,7.156196594238281,-0.4801183342933655,6.255568027496338,0.117731973528862,-0.16873005032539368,0.20730598270893097
2026-04-02 12:56:48.481,1549.486494863,192681925,left_foot,左脚,D4:22:CD:00:84:61,0.7620227932929993,0.20282214879989624,-0.360454261302948,0.49825412034988403,-4.353673728503645,-48.71723781832697,68.3297913665236,7.153952598571777,-0.4899543821811676,6.269315719604492,0.05864987522363663,-0.22192762792110443,0.2737068831920624
2026-04-02 12:56:48.541,1549.546654927,192715259,left_foot,左脚,D4:22:CD:00:84:61,0.7620261311531067,0.20282790064811707,-0.3604453504085541,0.49825307726860046,-4.351909770672356,-48.71673123789892,68.32862884697768,7.151123523712158,-0.49197882413864136,6.263854026794434,0.1280730962753296,-0.17275764048099518,0.23948833346366882
2026-04-02 12:56:48.571,1549.576286468,192748593,left_foot,左脚,D4:22:CD:00:84:61,0.7620377540588379,0.2028401792049408,-0.36042648553848267,0.4982440173625946,-4.347573859956127,-48.71570103272958,68.32486149691044,7.160830974578857,-0.4860458970069885,6.266016006469727,0.14266593754291534,-0.15261328220367432,0.18711039423942566
2026-04-02 12:56:48.601,1549.606631501,192781927,left_foot,左脚,D4:22:CD:00:84:61,0.7620459794998169,0.20282906293869019,-0.36040571331977844,0.4982510507106781,-4.347141691210665,-48.712748585381746,68.32470500156451,7.155100345611572,-0.4804670214653015,6.260782241821289,0.10735882818698883,-0.1009332463145256,0.2633722126483917
2026-04-02 12:56:48.631,1549.636570296,192815261,left_foot,左脚,D4:22:CD:00:84:61,0.7620393633842468,0.20281648635864258,-0.3604011833667755,0.49826937913894653,-4.349677717663355,-48.711304442845154,68.32817472200306,7.16094446182251,-0.48064741492271423,6.250815391540527,0.09334227442741394,-0.150788351893425,0.325310081243515
2026-04-02 12:56:48.661,1549.66646239,192848595,left_foot,左脚,D4:22:CD:00:84:61,0.7620320916175842,0.20280759036540985,-0.3604232668876648,0.49826815724372864,-4.353098292680527,-48.71295835847063,68.33017281536307,7.152493476867676,-0.47567132115364075,6.266734600067139,0.02794025093317032,-0.24077217280864716,0.2851814031600952
2026-04-02 12:56:48.691,1549.696458828,192881929,left_foot,左脚,D4:22:CD:00:84:61,0.7620396018028259,0.20280393958091736,-0.3604413568973541,0.4982452988624573,-4.353601324486081,-48.71468673302265,68.32755474879178,7.15371561050415,-0.49918171763420105,6.262694358825684,0.024181587621569633,-0.2370903491973877,0.20420043170452118
2026-04-02 12:56:48.721,1549.726483602,192915263,left_foot,左脚,D4:22:CD:00:84:61,0.7620452642440796,0.20279519259929657,-0.36044585704803467,0.4982369542121887,-4.3544200960963115,-48.71458526193635,68.32665215984666,7.147918224334717,-0.4777047336101532,6.260756969451904,0.05394994094967842,-0.18489165604114532,0.2421712428331375
2026-04-02 12:56:48.751,1549.756625731,192948597,left_foot,左脚,D4:22:CD:00:84:61,0.7620420455932617,0.20280280709266663,-0.3604409396648407,0.49824219942092896,-4.353426281903634,-48.71458542973156,68.32697595568446,7.156276702880859,-0.4768422842025757,6.263679027557373,0.12026762962341309,-0.1889192759990692,0.25353050231933594
2026-04-02 12:56:48.783,1549.788365222,192981931,left_foot,左脚,D4:22:CD:00:84:61,0.7620447874069214,0.20278985798358917,-0.36042943596839905,0.49825167655944824,-4.354458667928799,-48.71244281800791,68.3281552432469,7.153537273406982,-0.4772377014160156,6.2676286697387695,0.08957722783088684,-0.12678927183151245,0.2842465341091156
2026-04-02 12:56:48.841,1549.846668452,193015265,left_foot,左脚,D4:22:CD:00:84:61,0.7620518207550049,0.20279084146022797,-0.36042824387550354,0.4982416033744812,-4.353342819233939,-48.71244121267347,68.32610390619334,7.152036190032959,-0.4845675230026245,6.273402690887451,0.09333586692810059,-0.18670375645160675,0.2259584218263626
2026-04-02 12:56:48.871,1549.87664848,193048599,left_foot,左脚,D4:22:CD:00:84:61,0.7620561718940735,0.20280998945236206,-0.360405832529068,0.49824315309524536,-4.348717247449966,-48.71147286818229,68.32382679503843,7.1482930183410645,-0.4805707335472107,6.265315055847168,0.18552237749099731,-0.15708909928798676,0.2168787121772766
2026-04-02 12:56:48.932,1549.937525489,193081933,left_foot,左脚,D4:22:CD:00:84:61,0.7620658278465271,0.20280857384204865,-0.3604085147380829,0.4982271194458008,-4.347812950487265,-48.71173854123958,68.32107506616684,7.148092746734619,-0.48779645562171936,6.265581130981445,0.07034207880496979,-0.19372805953025818,0.21098139882087708
2026-04-02 12:56:48.933,1549.938167927,193115267,left_foot,左脚,D4:22:CD:00:84:61,0.7620642185211182,0.20280775427818298,-0.3604154586791992,0.4982248544692993,-4.348497121957874,-48.7124085169905,68.32128801737606,7.15416145324707,-0.4846726357936859,6.27368688583374,0.07928090542554855,-0.2094990611076355,0.2591332793235779
2026-04-02 12:56:48.961,1549.966466272,193148601,left_foot,左脚,D4:22:CD:00:84:61,0.7620513439178467,0.20281897485256195,-0.36040911078453064,0.49824464321136475,-4.348155151045697,-48.7124257394492,68.32410511462744,7.148806095123291,-0.48236599564552307,6.257254123687744,0.1625734120607376,-0.19336307048797607,0.3073299825191498
2026-04-02 12:56:48.991,1549.996490854,193181935,left_foot,左脚,D4:22:CD:00:84:61,0.7620474100112915,0.20279258489608765,-0.3604279160499573,0.4982474744319916,-4.353614644406148,-48.712505539688564,68.32715229976408,7.152717113494873,-0.475896418094635,6.273406028747559,0.010882196016609669,-0.19671835005283356,0.3259119987487793
2026-04-02 12:56:49.021,1550.026355346,193215269,left_foot,左脚,D4:22:CD:00:84:61,0.7620420455932617,0.20278672873973846,-0.36042073369026184,0.49826350808143616,-4.354855565838234,-48.711260919901875,68.32971617114572,7.1574320793151855,-0.48464223742485046,6.250885009765625,0.11167456954717636,-0.15561635792255402,0.30683690309524536
2026-04-02 12:56:49.051,1550.056434651,193248603,left_foot,左脚,D4:22:CD:00:84:61,0.7620418071746826,0.20278289914131165,-0.36042672395706177,0.49826106429100037,-4.355770280776989,-48.7116235067244,68.32990633006968,7.1435546875,-0.4869202971458435,6.275712966918945,0.07278808951377869,-0.20029772818088531,0.26048436760902405
2026-04-02 12:56:49.081,1550.086619383,193281937,left_foot,左脚,D4:22:CD:00:84:61,0.7620438933372498,0.2027818262577057,-0.36042049527168274,0.49826279282569885,-4.355344270091071,-48.71089933136756,68.3297184826153,7.15088415145874,-0.47656717896461487,6.271172523498535,0.10818483680486679,-0.1675134301185608,0.2581599950790405
2026-04-02 12:56:49.141,1550.146369693,193315271,left_foot,左脚,D4:22:CD:00:84:61,0.7620456218719482,0.20278730988502502,-0.3604136109352112,0.49826279282569885,-4.353930588999801,-48.71057774621191,68.32894401821228,7.156991958618164,-0.48278799653053284,6.264583587646484,0.121804378926754,-0.17830918729305267,0.24337506294250488
2026-04-02 12:56:49.171,1550.176595623,193348605,left_foot,左脚,D4:22:CD:00:84:61,0.7620628476142883,0.2027830183506012,-0.36038193106651306,0.49826112389564514,-4.350730712355577,-48.70703239423192,68.32596939609809,7.160661220550537,-0.47865030169487,6.260796546936035,0.12176597118377686,-0.07834284752607346,0.20427727699279785
2026-04-02 12:56:49.201,1550.206639263,193381939,left_foot,左脚,D4:22:CD:00:84:61,0.7620645761489868,0.20277966558933258,-0.3603841960430145,0.49825814366340637,-4.351125861196447,-48.70704934614867,68.32571625447498,7.148296356201172,-0.47601285576820374,6.257137775421143,0.07112966477870941,-0.1889384537935257,0.2465958446264267
2026-04-02 12:56:49.231,1550.236654897,193415273,left_foot,左脚,D4:22:CD:00:84:61,0.7620673775672913,0.2027820199728012,-0.3603891134262085,0.4982493817806244,-4.350653348501955,-48.70776810790225,68.32441910487327,7.156647205352783,-0.48578664660453796,6.274216175079346,0.08410889655351639,-0.20889714360237122,0.23270738124847412
2026-04-02 12:56:49.261,1550.266311537,193448607,left_foot,左脚,D4:22:CD:00:84:61,0.7620744109153748,0.20277762413024902,-0.3603910207748413,0.49823907017707825,-4.350501915973797,-48.70771486859972,68.32277742040735,7.156620025634766,-0.4897937774658203,6.248116970062256,0.06931116431951523,-0.18546153604984283,0.23022937774658203
2026-04-02 12:56:49.291,1550.296478006,193481941,left_foot,左脚,D4:22:CD:00:84:61,0.7620790600776672,0.20276422798633575,-0.3603915572166443,0.4982369542121887,-4.351954544293056,-48.706847763109394,68.32285293312509,7.1580119132995605,-0.48243895173072815,6.263153076171875,0.05833612009882927,-0.16353069245815277,0.2643774747848511
2026-04-02 12:56:49.321,1550.326452612,193515275,left_foot,左脚,D4:22:CD:00:84:61,0.7620893120765686,0.20276528596878052,-0.3603893518447876,0.49822232127189636,-4.350337140163468,-48.70678137082745,68.31986945469426,7.161649703979492,-0.4800507724285126,6.248406887054443,0.07378698140382767,-0.18242645263671875,0.1956714242696762
2026-04-02 12:56:49.351,1550.356499326,193548609,left_foot,左脚,D4:22:CD:00:84:61,0.7620923519134521,0.20275889337062836,-0.3603915572166443,0.49821898341178894,-4.351040688904794,-48.70657301404191,68.31961777610522,7.148014068603516,-0.4864446520805359,6.260739326477051,0.06753748655319214,-0.18246488273143768,0.2515583336353302
2026-04-02 12:56:49.381,1550.386336308,193581943,left_foot,左脚,D4:22:CD:00:84:61,0.7620951533317566,0.2027597278356552,-0.3603871762752533,0.4982174336910248,-4.3503210900602225,-48.70619231529631,68.3189180909945,7.1510162353515625,-0.4841541051864624,6.261275768280029,0.10526499152183533,-0.17678523063659668,0.24783168733119965
2026-04-02 12:56:49.441,1550.446575465,193615277,left_foot,左脚,D4:22:CD:00:84:61,0.7620949745178223,0.20276689529418945,-0.36038023233413696,0.49821966886520386,-4.348895379624773,-48.70597035874714,68.31850964806492,7.14744758605957,-0.4844183921813965,6.269896984100342,0.14173105359077454,-0.1825352907180786,0.2592805325984955
2026-04-02 12:56:49.471,1550.476603916,193648611,left_foot,左脚,D4:22:CD:00:84:61,0.7620953321456909,0.20277877151966095,-0.36038467288017273,0.49821123480796814,-4.347276996383462,-48.70730054586697,68.31692399938342,7.15042781829834,-0.48784294724464417,6.277552604675293,0.10580285638570786,-0.22625617682933807,0.2208935022354126
2026-04-02 12:56:49.501,1550.506363314,193681945,left_foot,左脚,D4:22:CD:00:84:61,0.7621016502380371,0.20280051231384277,-0.36037755012512207,0.4981978237628937,-4.342783772646799,-48.708165122987445,68.31307945401628,7.143198490142822,-0.484130859375,6.248966217041016,0.15264849364757538,-0.2096015363931656,0.18652769923210144
2026-04-02 12:56:49.531,1550.536527003,193715279,left_foot,左脚,D4:22:CD:00:84:61,0.7621030807495117,0.20281672477722168,-0.3603842854499817,0.49818429350852966,-4.340480215940178,-48.710063629082356,68.3105983529229,7.152918815612793,-0.48490509390830994,6.251478672027588,0.10947826504707336,-0.24212965369224548,0.20382903516292572
2026-04-02 12:56:49.561,1550.566508685,193748613,left_foot,左脚,D4:22:CD:00:84:61,0.7620875835418701,0.20280234515666962,-0.3604035973548889,0.4981999099254608,-4.345668787748496,-48.71095377971092,68.31570279480479,7.163068771362305,-0.4818893074989319,6.262173652648926,0.05478876456618309,-0.2232338786125183,0.355539470911026
2026-04-02 12:56:49.592,1550.597419822,193781947,left_foot,左脚,D4:22:CD:00:84:61,0.762081503868103,0.20280198752880096,-0.36042261123657227,0.4981955587863922,-4.347477020038657,-48.7129081804102,68.31657196757065,7.156713008880615,-0.48648399114608765,6.27512264251709,0.057593364268541336,-0.2485969066619873,0.2665289640426636
2026-04-02 12:56:49.621,1550.626299792,193815281,left_foot,左脚,D4:22:CD:00:84:61,0.762090802192688,0.20281516015529633,-0.3604199290275574,0.4981778562068939,-4.344121022905764,-48.71365507391467,68.31257982988818,7.160083770751953,-0.48536643385887146,6.264404773712158,0.11976819485425949,-0.20616301894187927,0.18765465915203094
2026-04-02 12:56:49.651,1550.656476978,193848615,left_foot,左脚,D4:22:CD:00:84:61,0.762097954750061,0.20282036066055298,-0.36041200160980225,0.49817052483558655,-4.341994657324338,-48.71324575703543,68.31033250471548,7.147550106048584,-0.49252456426620483,6.258265972137451,0.10530981421470642,-0.17316745221614838,0.21045634150505066
2026-04-02 12:56:49.681,1550.686503873,193881949,left_foot,左脚,D4:22:CD:00:84:61,0.7621095776557922,0.20283156633377075,-0.3603940010070801,0.49816104769706726,-4.33785349417034,-48.712236626676386,68.30661080169669,7.154873371124268,-0.4779297113418579,6.253713607788086,0.13596181571483612,-0.1531447321176529,0.18586815893650055
2026-04-02 12:56:49.741,1550.746374105,193915283,left_foot,左脚,D4:22:CD:00:84:61,0.762105405330658,0.20284271240234375,-0.3603920042514801,0.4981642961502075,-4.336600293233059,-48.71279258181293,68.3066977270909,7.149101257324219,-0.48064225912094116,6.264199256896973,0.14279399812221527,-0.2062206268310547,0.26357707381248474
2026-04-02 12:56:49.771,1550.776268685,193948617,left_foot,左脚,D4:22:CD:00:84:61,0.7620927095413208,0.20283181965351105,-0.36041879653930664,0.49816906452178955,-4.341286523411861,-48.71475043500358,68.31028762841935,7.147878170013428,-0.47267982363700867,6.276522636413574,0.0325121209025383,-0.25284215807914734,0.32060378789901733
2026-04-02 12:56:49.801,1550.806416543,193981951,left_foot,左脚,D4:22:CD:00:84:61,0.7620996236801147,0.20282550156116486,-0.3604293167591095,0.4981534779071808,-4.341878028931497,-48.71547803846056,68.30847077605364,7.163402557373047,-0.4772341251373291,6.274593353271484,0.04690645635128021,-0.20878832042217255,0.22798822820186615
2026-04-02 12:56:49.831,1550.836245021,194015285,left_foot,左脚,D4:22:CD:00:84:61,0.7621028423309326,0.2028025984764099,-0.3604232966899872,0.49816209077835083,-4.344627560757855,-48.71321391401115,68.31029925678766,7.160161018371582,-0.49341267347335815,6.2720818519592285,0.05501287430524826,-0.12398466467857361,0.2988521456718445
2026-04-02 12:56:49.861,1550.866506014,194048619,left_foot,左脚,D4:22:CD:00:84:61,0.762104332447052,0.2028110772371292,-0.3604156970977783,0.4981619119644165,-4.3427623330508505,-48.71302506585078,68.30932381249833,7.156368732452393,-0.47903338074684143,6.267330646514893,0.12108083069324493,-0.18143394589424133,0.23099134862422943
2026-04-02 12:56:49.891,1550.896536169,194081953,left_foot,左脚,D4:22:CD:00:84:61,0.7621055245399475,0.20282107591629028,-0.3603997826576233,0.49816733598709106,-4.340270345187011,-48.71206213755517,68.30863975433971,7.158624649047852,-0.4823284447193146,6.252009391784668,0.16135680675506592,-0.15939423441886902,0.25089237093925476
2026-04-02 12:56:49.921,1550.926548108,194115287,left_foot,左脚,D4:22:CD:00:84:61,0.7621001601219177,0.20281238853931427,-0.36039260029792786,0.498184472322464,-4.341939387190959,-48.71061498759771,68.31150477793425,7.1476545333862305,-0.4740191102027893,6.271543025970459,0.11460721492767334,-0.15019284188747406,0.32054612040519714
2026-04-02 12:56:49.951,1550.956325413,194148621,left_foot,左脚,D4:22:CD:00:84:61,0.7620897889137268,0.20282767713069916,-0.36039599776268005,0.49819162487983704,-4.341139430993005,-48.71199216534862,68.3126728269945,7.155205726623535,-0.4852698743343353,6.260775089263916,0.1422048956155777,-0.23182694613933563,0.27416151762008667
2026-04-02 12:56:49.981,1550.986464983,194181955,left_foot,左脚,D4:22:CD:00:84:61,0.7620788216590881,0.20283742249011993,-0.3604108989238739,0.49819356203079224,-4.341838791085497,-48.71419526889028,68.31404974018125,7.153791427612305,-0.4833136796951294,6.268427848815918,0.10986247658729553,-0.2571195065975189,0.28272899985313416
2026-04-02 12:56:50.041,1551.046664732,194215289,left_foot,左脚,D4:22:CD:00:84:61,0.7620638608932495,0.20284046232700348,-0.36044272780418396,0.49819234013557434,-4.344949941082093,-48.71768117610173,68.31652072529695,7.1491379737854,-0.4924513101577759,6.2688398361206055,0.06277993321418762,-0.2972674071788788,0.3020537793636322
2026-04-02 12:56:50.071,1551.076434216,194248623,left_foot,左脚,D4:22:CD:00:84:61,0.7620675563812256,0.202840656042099,-0.3604530096054077,0.4981790781021118,-4.344952944923812,-48.7188288916758,68.3149229038963,7.152157306671143,-0.488046795129776,6.242661476135254,0.06039794906973839,-0.2209223508834839,0.22383898496627808
2026-04-02 12:56:50.101,1551.106387459,194281957,left_foot,左脚,D4:22:CD:00:84:61,0.7620750069618225,0.20284217596054077,-0.3604605793952942,0.4981617033481598,-4.344138180963477,-48.71980897537846,68.31225484028379,7.153634071350098,-0.48258236050605774,6.265422344207764,0.0654052272439003,-0.2149033397436142,0.20722272992134094
2026-04-02 12:56:50.132,1551.137385203,194315291,left_foot,左脚,D4:22:CD:00:84:61,0.7620797157287598,0.20284150540828705,-0.3604549765586853,0.498158723115921,-4.343335781596885,-48.71920590107465,68.31122532450564,7.1476545333862305,-0.49838560819625854,6.256331443786621,0.10266530513763428,-0.1699722707271576,0.24356718361377716
2026-04-02 12:56:50.161,1551.166526849,194348625,left_foot,左脚,D4:22:CD:00:84:61,0.7620877027511597,0.20284226536750793,-0.360444039106369,0.4981538653373718,-4.341609968682475,-48.71816865796103,68.30933387413616,7.153061866760254,-0.492037832736969,6.265951633453369,0.10490001738071442,-0.15496963262557983,0.2221805602312088
2026-04-02 12:56:50.191,1551.196297333,194381959,left_foot,左脚,D4:22:CD:00:84:61,0.7621051073074341,0.2028481811285019,-0.3604346811771393,0.4981318712234497,-4.337978585051916,-48.71773893851839,68.30415260874196,7.149970054626465,-0.48449739813804626,6.258822441101074,0.09305413067340851,-0.1687556654214859,0.16041551530361176
2026-04-02 12:56:50.221,1551.226461019,194415293,left_foot,左脚,D4:22:CD:00:84:61,0.7621052265167236,0.20284895598888397,-0.3604312837123871,0.49813392758369446,-4.337678717731358,-48.71742994216606,68.30421102424252,7.16027307510376,-0.49112412333488464,6.258108615875244,0.10545068979263306,-0.17980115115642548,0.25849297642707825
2026-04-02 12:56:50.251,1551.256576539,194448627,left_foot,左脚,D4:22:CD:00:84:61,0.7621124982833862,0.2028583586215973,-0.360416054725647,0.4981299936771393,-4.334528829266004,-48.71654415777756,68.30182771743002,7.145430088043213,-0.47516173124313354,6.258137226104736,0.1348092257976532,-0.1587667018175125,0.21066127717494965
2026-04-02 12:56:50.281,1551.286453055,194481961,left_foot,左脚,D4:22:CD:00:84:61,0.7621214389801025,0.20285369455814362,-0.3604120910167694,0.4981209635734558,-4.333863184808211,-48.71586520516054,68.2999280673413,7.146425247192383,-0.48056209087371826,6.271193981170654,0.07526611536741257,-0.16567572951316833,0.22273123264312744
2026-04-02 12:56:50.341,1551.346481765,194515295,left_foot,左脚,D4:22:CD:00:84:61,0.7621673345565796,0.2026505172252655,-0.360525906085968,0.4980511963367462,-4.364524638683567,-48.71376309597205,68.30321852255352,7.145946979522705,-0.4862443804740906,6.275735855102539,0.07190445065498352,-0.1871648132801056,0.23661330342292786
2026-04-02 12:56:50.371,1551.376626063,194548629,left_foot,左脚,D4:22:CD:00:84:61,0.7621802091598511,0.20264184474945068,-0.3605165481567383,0.4980417788028717,-4.363686962197416,-48.71225012385547,68.30089080997806,7.151493549346924,-0.4879663288593292,6.256993293762207,0.0703100636601448,-0.1403896063566208,0.21395887434482574
