local_time,arrival_time_monotonic,timestamp_us,role,role_label,mac_address,quat_w,quat_x,quat_y,quat_z,euler_x,euler_y,euler_z,acc_x,acc_y,acc_z,gyro_x,gyro_y,gyro_z
2026-04-02 12:57:02.616,1563.621571333,300536187,right_foot,右脚,D4:22:CD:00:85:22,0.8016650080680847,0.13555440306663513,-0.4028392434120178,0.4203319847583771,-10.754732784868569,-49.45007616438452,60.30198249798395,-1.941896677017212,-9.001777648925781,-0.30285215377807617,-10.435816764831543,6.4345316886901855,-7.078068733215332
2026-04-02 12:57:02.646,1563.651469961,300552854,right_foot,右脚,D4:22:CD:00:85:22,0.8015838861465454,0.1356794834136963,-0.4029555916786194,0.4203348457813263,-10.752141281257199,-49.47009292738888,60.308149931424836,7.089369297027588,-1.1323834657669067,5.96997594833374,1.7227933406829834,-1.0126620531082153,1.169533371925354
2026-04-02 12:57:02.676,1563.681489409,300586188,right_foot,右脚,D4:22:CD:00:85:22,0.8014220595359802,0.13591966032981873,-0.403072327375412,0.4204540252685547,-10.744657326195641,-49.495748465666814,60.33047767374264,7.1013031005859375,-1.13226318359375,5.97731351852417,1.717162013053894,-1.0468807220458984,1.1034624576568604
2026-04-02 12:57:02.706,1563.711447034,300619522,right_foot,右脚,D4:22:CD:00:85:22,0.8012836575508118,0.13614675402641296,-0.4030570089817047,0.4206586182117462,-10.731182274536444,-49.505521724242854,60.356416120962855,7.103623867034912,-1.13211190700531,5.990198135375977,1.7334709167480469,-1.0614992380142212,1.1413564682006836
2026-04-02 12:57:02.736,1563.741530913,300652856,right_foot,右脚,D4:22:CD:00:85:22,0.801148533821106,0.13634037971496582,-0.40307143330574036,0.42083942890167236,-10.723278299624223,-49.51667385406062,60.382238428054336,7.106452941894531,-1.1406303644180298,5.971713066101074,1.6884373426437378,-1.0473802089691162,1.1099166870117188
2026-04-02 12:57:02.766,1563.771542025,300686190,right_foot,右脚,D4:22:CD:00:85:22,0.8009740114212036,0.1365392953157425,-0.40313076972961426,0.4210503399372101,-10.722201898996769,-49.53250229690296,60.41745915231793,7.103719711303711,-1.1360148191452026,5.976385116577148,1.6504793167114258,-1.0350092649459839,1.1206612586975098
2026-04-02 12:57:02.796,1563.801532408,300719524,right_foot,右脚,D4:22:CD:00:85:22,0.8007299900054932,0.13682518899440765,-0.4031698703765869,0.42138418555259705,-10.718074406883217,-49.54997848020787,60.46932955339527,7.1142897605896,-1.122168779373169,5.977169513702393,1.7392913103103638,-1.0176887512207031,1.1718227863311768
2026-04-02 12:57:02.826,1563.831490645,300752858,right_foot,右脚,D4:22:CD:00:85:22,0.8005232810974121,0.13709096610546112,-0.4032343924045563,0.4216286242008209,-10.711982941583452,-49.57009209162334,60.50837094261054,7.101317405700684,-1.127690076828003,5.969429016113281,1.679677963256836,-1.0588099956512451,1.132071852684021
2026-04-02 12:57:02.886,1563.89160118,300786192,right_foot,右脚,D4:22:CD:00:85:22,0.800335168838501,0.1373138278722763,-0.40331676602363586,0.4218342900276184,-10.710115392025774,-49.58994070471552,60.54390798330883,7.105498790740967,-1.1283009052276611,5.988375663757324,1.6416300535202026,-1.0531749725341797,1.2066303491592407
2026-04-02 12:57:02.916,1563.921666356,300819526,right_foot,右脚,D4:22:CD:00:85:22,0.8001245856285095,0.13757960498332977,-0.40337979793548584,0.4220868647098541,-10.704583899702584,-49.60980531281133,60.584330429340746,7.104963302612305,-1.1362144947052002,5.971822261810303,1.6990153789520264,-1.0694775581359863,1.1480157375335693
2026-04-02 12:57:02.946,1563.951448663,300852860,right_foot,右脚,D4:22:CD:00:85:22,0.799958348274231,0.13777408003807068,-0.4034215211868286,0.4222988486289978,-10.702305980868964,-49.62351771336466,60.61840366581611,7.0984787940979,-1.1353356838226318,5.978006362915039,1.6066173315048218,-0.8780673146247864,1.1665719747543335
2026-04-02 12:57:02.976,1563.981351736,300886194,right_foot,右脚,D4:22:CD:00:85:22,0.7997537851333618,0.13803742825984955,-0.4034547209739685,0.4225686192512512,-10.695213872228415,-49.639871969673685,60.65927895054196,7.1035614013671875,-1.1426961421966553,5.979547023773193,1.7508363723754883,-0.9485920667648315,1.1207895278930664
2026-04-02 12:57:03.036,1564.041226626,300919528,right_foot,右脚,D4:22:CD:00:85:22,0.7995537519454956,0.13829417526721954,-0.40349289774894714,0.42282652854919434,-10.688561774902597,-49.6565132113841,60.69879793829502,7.104055881500244,-1.1224467754364014,5.978490829467773,1.7389905452728271,-0.9574925303459167,1.1070290803909302
2026-04-02 12:57:03.036,1564.041371512,300952862,right_foot,右脚,D4:22:CD:00:85:22,0.7993671894073486,0.1385304033756256,-0.4035780131816864,0.4230206608772278,-10.684492066740374,-49.67767779610243,60.73209540870562,7.101064682006836,-1.1295905113220215,5.980179309844971,1.6736140251159668,-1.0999054908752441,1.1149945259094238
2026-04-02 12:57:03.066,1564.071355679,300986196,right_foot,右脚,D4:22:CD:00:85:22,0.7991576790809631,0.1387994885444641,-0.40365365147590637,0.4232558608055115,-10.678665859871938,-49.699364642081186,60.7705966782826,7.108197212219238,-1.1310678720474243,5.987811088562012,1.7797785997390747,-1.124147891998291,1.1607389450073242
2026-04-02 12:57:03.096,1564.101398295,301019530,right_foot,右脚,D4:22:CD:00:85:22,0.7989584803581238,0.13904546201229095,-0.4037396311759949,0.4234691262245178,-10.675112447514692,-49.7209930182981,60.807087836333714,7.093674182891846,-1.1294293403625488,5.9795427322387695,1.7298145294189453,-1.1306535005569458,1.1700042486190796
2026-04-02 12:57:03.126,1564.131225924,301052864,right_foot,右脚,D4:22:CD:00:85:22,0.7987563610076904,0.1392892748117447,-0.4038393199443817,0.42367541790008545,-10.67281735738017,-49.74402797608612,60.84372309624485,7.104156970977783,-1.1236377954483032,5.985751152038574,1.699777603149414,-1.1775312423706055,1.1710032224655151
2026-04-02 12:57:03.186,1564.191700461,301086198,right_foot,右脚,D4:22:CD:00:85:22,0.7985968589782715,0.13947834074497223,-0.40395018458366394,0.4238083064556122,-10.672587491847974,-49.76579524323861,60.87043455799312,7.1071271896362305,-1.147868037223816,5.967872619628906,1.6623317003250122,-1.144061803817749,1.1961548328399658
2026-04-02 12:57:03.216,1564.221329828,301119532,right_foot,右脚,D4:22:CD:00:85:22,0.7983940839767456,0.13972020149230957,-0.4040400981903076,0.42402464151382446,-10.670343801357715,-49.7875674684386,60.908124975703366,7.107199668884277,-1.133107304573059,5.982429504394531,1.6908578872680664,-1.1313387155532837,1.1534456014633179
2026-04-02 12:57:03.247,1564.252252948,301152866,right_foot,右脚,D4:22:CD:00:85:22,0.7982657551765442,0.13989247381687164,-0.4041290283203125,0.42412468791007996,-10.66705800637846,-49.80641779927039,60.92755632346419,7.103309154510498,-1.1326154470443726,5.991350173950195,1.6556209325790405,-1.0373207330703735,1.115308165550232
2026-04-02 12:57:03.277,1564.282284302,301186200,right_foot,右脚,D4:22:CD:00:85:22,0.7980837225914001,0.14011482894420624,-0.4042065739631653,0.4243202209472656,-10.664167575822882,-49.82594062000788,60.96113548535273,7.110266208648682,-1.1353381872177124,5.978272438049316,1.60939621925354,-1.0568567514419556,1.0814673900604248
2026-04-02 12:57:03.307,1564.3122462,301219534,right_foot,右脚,D4:22:CD:00:85:22,0.7978869080543518,0.1403481662273407,-0.4042721092700958,0.4245505630970001,-10.661485853254314,-49.84444124096145,60.9994772060894,7.097859859466553,-1.1322399377822876,5.987987041473389,1.700904369354248,-1.0408426523208618,1.1659703254699707
2026-04-02 12:57:03.336,1564.341345923,301252868,right_foot,右脚,D4:22:CD:00:85:22,0.797713041305542,0.1405920684337616,-0.4043267071247101,0.4247446358203888,-10.653220920796885,-49.86293785175736,61.02978333710858,7.1037516593933105,-1.126086711883545,5.992339611053467,1.7074930667877197,-1.0232914686203003,1.033610224723816
2026-04-02 12:57:03.366,1564.371465716,301286202,right_foot,右脚,D4:22:CD:00:85:22,0.7975510358810425,0.14080402255058289,-0.4043869376182556,0.4249208867549896,-10.64815305342165,-49.880274083262584,61.05875488488545,7.1134562492370605,-1.1317447423934937,5.972797870635986,1.696038007736206,-1.004158854484558,1.1083545684814453
2026-04-02 12:57:03.396,1564.401269699,301319536,right_foot,右脚,D4:22:CD:00:85:22,0.7973719835281372,0.14104817807674408,-0.40445587038993835,0.42511042952537537,-10.6411404894714,-49.90037246203547,61.08963465268393,7.098886013031006,-1.1286956071853638,5.986970901489258,1.7175205945968628,-1.0771229267120361,1.0631288290023804
2026-04-02 12:57:03.426,1564.431343806,301352870,right_foot,右脚,D4:22:CD:00:85:22,0.7972022294998169,0.14125177264213562,-0.4045255184173584,0.4252949655056,-10.638914644147034,-49.91806961624556,61.121372998337016,7.110774040222168,-1.1259490251541138,5.966328144073486,1.6369173526763916,-1.0203971862792969,1.1293247938156128
2026-04-02 12:57:03.486,1564.491379288,301386204,right_foot,右脚,D4:22:CD:00:85:22,0.7970128655433655,0.1414618045091629,-0.40459346771240234,0.4255153238773346,-10.638720449557669,-49.93552612419901,61.15921963158176,7.0929365158081055,-1.138170599937439,5.993747711181641,1.614467740058899,-1.019545555114746,1.1599832773208618
2026-04-02 12:57:03.517,1564.522201356,301419538,right_foot,右脚,D4:22:CD:00:85:22,0.7968520522117615,0.14164625108242035,-0.4046541750431061,0.42569729685783386,-10.637720019703876,-49.951124213313776,61.19048239981518,7.100269317626953,-1.136987566947937,5.985960960388184,1.6247769594192505,-0.9707213044166565,1.1552256345748901
2026-04-02 12:57:03.546,1564.55188561,301452872,right_foot,右脚,D4:22:CD:00:85:22,0.7966688275337219,0.14185073971748352,-0.4046894907951355,0.42593881487846375,-10.636327974007974,-49.96451851879384,61.22931714583538,7.101127624511719,-1.1432894468307495,5.995075702667236,1.619942545890808,-0.908200740814209,1.1491299867630005
2026-04-02 12:57:03.576,1564.58140668,301486206,right_foot,右脚,D4:22:CD:00:85:22,0.7964938879013062,0.1420671045780182,-0.4047270119190216,0.4261581003665924,-10.631855015189519,-49.97920343880529,61.26387339865766,7.1043572425842285,-1.1422377824783325,5.979204177856445,1.6733064651489258,-0.9438856244087219,1.1017719507217407
2026-04-02 12:57:03.607,1564.612540686,301519540,right_foot,右脚,D4:22:CD:00:85:22,0.7963170409202576,0.142304465174675,-0.4047919809818268,0.4263475835323334,-10.625380636837477,-49.998505928005144,61.294795819276544,7.100975036621094,-1.1330254077911377,5.994436740875244,1.7034465074539185,-1.0792745351791382,1.049163579940796
2026-04-02 12:57:03.636,1564.641401354,301552874,right_foot,右脚,D4:22:CD:00:85:22,0.7961428165435791,0.1425207555294037,-0.40486934781074524,0.42652714252471924,-10.6221541250542,-50.017922873077566,61.32599189517713,7.104628562927246,-1.1233115196228027,5.981724739074707,1.7025116682052612,-1.102838158607483,1.1260336637496948
2026-04-02 12:57:03.666,1564.671327966,301586208,right_foot,右脚,D4:22:CD:00:85:22,0.7959549427032471,0.14273850619792938,-0.4049544036388397,0.4267239570617676,-10.62110562154685,-50.03802181111618,61.36103995285589,7.102138042449951,-1.1282095909118652,5.991168022155762,1.6485648155212402,-1.1303077936172485,1.132520079612732
2026-04-02 12:57:03.696,1564.701425601,301619542,right_foot,右脚,D4:22:CD:00:85:22,0.7957735657691956,0.1429608315229416,-0.4050343334674835,0.42691221833229065,-10.618185854016389,-50.05797993566472,61.3938515901623,7.103695392608643,-1.1317088603973389,5.989569187164307,1.6677935123443604,-1.1260560750961304,1.1022778749465942
2026-04-02 12:57:03.727,1564.732175082,301652876,right_foot,右脚,D4:22:CD:00:85:22,0.7955845594406128,0.14320410788059235,-0.40510982275009155,0.4271111488342285,-10.61306396753378,-50.078669737646784,61.42736525836511,7.115710735321045,-1.1232764720916748,5.988243579864502,1.7827943563461304,-1.1609212160110474,1.1367202997207642
2026-04-02 12:57:03.786,1564.79140406,301686210,right_foot,右脚,D4:22:CD:00:85:22,0.7954066395759583,0.14340756833553314,-0.4051755666732788,0.42731186747550964,-10.612003308417835,-50.095796311887845,61.46192488717636,7.107149124145508,-1.1275595426559448,5.988763809204102,1.6611278057098389,-1.061364769935608,1.1567752361297607
2026-04-02 12:57:03.816,1564.821319197,301719544,right_foot,右脚,D4:22:CD:00:85:22,0.795228123664856,0.14360593259334564,-0.40521278977394104,0.42754247784614563,-10.610861799833836,-50.10920293504134,61.499408102005994,7.097870826721191,-1.1410293579101562,5.978851795196533,1.6705596446990967,-0.9586899280548096,1.1803134679794312
2026-04-02 12:57:03.846,1564.851388927,301752878,right_foot,右脚,D4:22:CD:00:85:22,0.7950631380081177,0.14380882680416107,-0.4052618443965912,0.4277341961860657,-10.607251958943136,-50.12467738744516,61.53080571491545,7.100154399871826,-1.1340175867080688,5.989143371582031,1.6893084049224854,-1.018489122390747,1.117261290550232
2026-04-02 12:57:03.876,1564.881445274,301786212,right_foot,右脚,D4:22:CD:00:85:22,0.7948909401893616,0.1440253108739853,-0.40531978011131287,0.4279266595840454,-10.603020169001109,-50.14193206068888,61.5626314360907,7.106655597686768,-1.1340690851211548,5.9849019050598145,1.7082102298736572,-1.0780643224716187,1.1048647165298462
2026-04-02 12:57:03.906,1564.911230024,301819546,right_foot,右脚,D4:22:CD:00:85:22,0.7947226762771606,0.14424434304237366,-0.40538474917411804,0.4281037747859955,-10.598000705923026,-50.16030339135888,61.59226291751339,7.10862398147583,-1.1357946395874023,5.983097076416016,1.7145752906799316,-1.1151899099349976,1.0815316438674927
2026-04-02 12:57:03.937,1564.942182707,301852880,right_foot,右脚,D4:22:CD:00:85:22,0.7945637702941895,0.14445015788078308,-0.40543705224990845,0.4282798171043396,-10.593111715282431,-50.17652331938842,61.621032208570284,7.105788707733154,-1.135994553565979,5.97491979598999,1.7161822319030762,-1.0591812133789062,1.0941649675369263
2026-04-02 12:57:03.967,1564.972191335,301886214,right_foot,右脚,D4:22:CD:00:85:22,0.7944170236587524,0.14464367926120758,-0.40550118684768677,0.42842596769332886,-10.588604703781098,-50.193610619141154,61.64600860180236,7.106953144073486,-1.1326403617858887,5.98068904876709,1.6978181600570679,-1.0902047157287598,1.0793545246124268
2026-04-02 12:57:03.996,1565.001339606,301919548,right_foot,右脚,D4:22:CD:00:85:22,0.7942530512809753,0.14484307169914246,-0.40556636452674866,0.42860087752342224,-10.585944225809804,-50.210804365086375,61.676122094439144,7.106886863708496,-1.1254783868789673,5.982414245605469,1.7190572023391724,-1.1125390529632568,1.1381356716156006
2026-04-02 12:57:04.027,1565.032146683,301952882,right_foot,右脚,D4:22:CD:00:85:22,0.7940913438796997,0.14501696825027466,-0.4056329131126404,0.4287785589694977,-10.586903648119529,-50.22649368663928,61.707950317885135,7.1018500328063965,-1.1363401412963867,5.989478588104248,1.612373948097229,-1.0776222944259644,1.145685076713562
2026-04-02 12:57:04.086,1565.091430824,301986216,right_foot,右脚,D4:22:CD:00:85:22,0.7939300537109375,0.14516545832157135,-0.4057022035121918,0.4289616048336029,-10.59183784903461,-50.240782111450784,61.7420750826963,7.101879596710205,-1.135256052017212,5.977203845977783,1.6075843572616577,-1.06306791305542,1.241348385810852
2026-04-02 12:57:04.116,1565.12135022,302019550,right_foot,右脚,D4:22:CD:00:85:22,0.7938036322593689,0.14529119431972504,-0.40571197867393494,0.4291433095932007,-10.592683421427866,-50.247401241887026,61.77115337347416,7.097259998321533,-1.1381847858428955,5.97703742980957,1.6154218912124634,-0.8288846611976624,1.1853909492492676
2026-04-02 12:57:04.146,1565.151363509,302052884,right_foot,右脚,D4:22:CD:00:85:22,0.7936714291572571,0.14546321332454681,-0.40574002265930176,0.42930319905281067,-10.587958837182374,-50.259164984785926,61.79609650123665,7.1039652824401855,-1.134487509727478,5.99163818359375,1.7013013362884521,-0.9776816368103027,1.0865836143493652
2026-04-02 12:57:04.176,1565.181333803,302086218,right_foot,右脚,D4:22:CD:00:85:22,0.7935286164283752,0.1456565409898758,-0.40578165650367737,0.4294623136520386,-10.58207848379542,-50.27373061193611,61.821365785463726,7.1017985343933105,-1.1316081285476685,5.98405122756958,1.7499206066131592,-1.0733771324157715,1.078195571899414
2026-04-02 12:57:04.206,1565.211496415,302119552,right_foot,右脚,D4:22:CD:00:85:22,0.7933904528617859,0.1458476483821869,-0.4058290719985962,0.4296078681945801,-10.576002041516386,-50.2889490013041,61.84482168360957,7.112496376037598,-1.1310592889785767,5.994438648223877,1.7271382808685303,-1.0983624458312988,1.0475115776062012
2026-04-02 12:57:04.236,1565.24120057,302152886,right_foot,右脚,D4:22:CD:00:85:22,0.7932510375976562,0.14600767195224762,-0.4058772027492523,0.4297656714916229,-10.574964764418509,-50.30210079821443,61.87187123032935,7.112133026123047,-1.127316951751709,5.998892784118652,1.7106114625930786,-1.0687732696533203,1.1655604839324951
2026-04-02 12:57:04.266,1565.271431696,302186220,right_foot,右脚,D4:22:CD:00:85:22,0.7931082248687744,0.14617381989955902,-0.4059333801269531,0.42991968989372253,-10.573786260436002,-50.31654601348864,61.898785425882274,7.1060709953308105,-1.1372872591018677,5.985738754272461,1.6866189241409302,-1.1149721145629883,1.1325136423110962
2026-04-02 12:57:04.296,1565.301287228,302219554,right_foot,右脚,D4:22:CD:00:85:22,0.7929564714431763,0.14631105959415436,-0.4060063064098358,0.4300838112831116,-10.579063963981653,-50.33078176174274,61.93040194086577,7.106809139251709,-1.14315664768219,6.001552581787109,1.5965005159378052,-1.13608980178833,1.2131807804107666
2026-04-02 12:57:04.326,1565.331370988,302252888,right_foot,右脚,D4:22:CD:00:85:22,0.7928216457366943,0.1464458405971527,-0.4060561954975128,0.43023934960365295,-10.581256265089728,-50.342552950881334,61.95830173142818,7.100813388824463,-1.1356221437454224,5.9774346351623535,1.6514782905578613,-1.0701500177383423,1.1900526285171509
2026-04-02 12:57:04.386,1565.391333595,302286222,right_foot,右脚,D4:22:CD:00:85:22,0.7926914095878601,0.14658765494823456,-0.40610021352767944,0.4303896725177765,-10.581444416616,-50.35422316858974,61.98438442791779,7.096257209777832,-1.1286605596542358,5.982663154602051,1.6829562187194824,-1.0736589431762695,1.1631208658218384
2026-04-02 12:57:04.416,1565.421356126,302319556,right_foot,右脚,D4:22:CD:00:85:22,0.7925720810890198,0.14673052728176117,-0.4061298966407776,0.4305328130722046,-10.579235224682941,-50.36455643842591,62.00772070088778,7.1104960441589355,-1.1327375173568726,5.985169887542725,1.7275735139846802,-1.0426034927368164,1.14412260055542
2026-04-02 12:57:04.446,1565.451265143,302352890,right_foot,右脚,D4:22:CD:00:85:22,0.7924641370773315,0.14685726165771484,-0.406157910823822,0.43066170811653137,-10.577650998282097,-50.37388109860349,62.028959614391134,7.106799602508545,-1.136070966720581,5.967835903167725,1.6560819149017334,-1.0156267881393433,1.1028157472610474
2026-04-02 12:57:04.476,1565.48165097,302386224,right_foot,右脚,D4:22:CD:00:85:22,0.7923535704612732,0.14700762927532196,-0.40618202090263367,0.43079113960266113,-10.572696438168528,-50.38429686526764,62.04894603743571,7.097965240478516,-1.1377136707305908,5.985179424285889,1.731658935546875,-1.054660677909851,1.070428490638733
2026-04-02 12:57:04.506,1565.511373235,302419558,right_foot,右脚,D4:22:CD:00:85:22,0.7922531366348267,0.14712907373905182,-0.4062131643295288,0.4309050738811493,-10.570864584160745,-50.39381180514585,62.06796559927098,7.097517967224121,-1.127487301826477,5.996542930603027,1.6622482538223267,-1.0456000566482544,1.0911107063293457
2026-04-02 12:57:04.536,1565.541197664,302452892,right_foot,右脚,D4:22:CD:00:85:22,0.7921529412269592,0.14725227653980255,-0.40623050928115845,0.4310305416584015,-10.568215434025422,-50.401846842770794,62.08770505525051,7.104170322418213,-1.1359920501708984,5.982155799865723,1.6770778894424438,-1.0137954950332642,1.0876721143722534
2026-04-02 12:57:04.566,1565.571259711,302486226,right_foot,右脚,D4:22:CD:00:85:22,0.7920677661895752,0.14735043048858643,-0.40624096989631653,0.4311438202857971,-10.566853022904073,-50.40771303901277,62.10553760083556,7.096631050109863,-1.1281994581222534,5.977450370788574,1.664284586906433,-0.9663671851158142,1.1164288520812988
2026-04-02 12:57:04.596,1565.601193017,302519560,right_foot,右脚,D4:22:CD:00:85:22,0.7919666171073914,0.14745664596557617,-0.4062819480895996,0.4312545955181122,-10.56782870935873,-50.417337551104595,62.125593860941784,7.103118419647217,-1.1339173316955566,5.985942840576172,1.6605579853057861,-1.0991178750991821,1.145697832107544
2026-04-02 12:57:04.626,1565.631261435,302552894,right_foot,右脚,D4:22:CD:00:85:22,0.7918803691864014,0.14754542708396912,-0.4063091576099396,0.43135693669319153,-10.568667419670431,-50.424513914519196,62.14346380941019,7.104578018188477,-1.1266725063323975,5.991348743438721,1.6308214664459229,-1.0345354080200195,1.1276344060897827
2026-04-02 12:57:04.686,1565.691170203,302586228,right_foot,右脚,D4:22:CD:00:85:22,0.7917871475219727,0.14763641357421875,-0.40632063150405884,0.43148618936538696,-10.56971492762626,-50.42982196618659,62.16465022631133,7.098733425140381,-1.1408652067184448,5.979489803314209,1.7044838666915894,-1.0054203271865845,1.1989660263061523
2026-04-02 12:57:04.716,1565.721187221,302619562,right_foot,右脚,D4:22:CD:00:85:22,0.7917389273643494,0.14768078923225403,-0.4062803089618683,0.43159735202789307,-10.569023210142591,-50.42695750526149,62.17933562614055,7.1033244132995605,-1.1450213193893433,5.986299991607666,1.6628245115280151,-0.7632200121879578,1.1620514392852783
2026-04-02 12:57:04.746,1565.751596244,302652896,right_foot,右脚,D4:22:CD:00:85:22,0.7916759848594666,0.1477753221988678,-0.4062690734863281,0.4316911995410919,-10.563935191603425,-50.43058066835101,62.19163229087137,7.094682216644287,-1.136022925376892,5.978625774383545,1.7143890857696533,-0.9535673260688782,1.0550864934921265
2026-04-02 12:57:04.776,1565.781546135,302686230,right_foot,右脚,D4:22:CD:00:85:22,0.7916109561920166,0.14788825809955597,-0.40626588463783264,0.43177464604377747,-10.556593146992368,-50.436371922756805,62.202071206927705,7.099643230438232,-1.1258642673492432,5.9805803298950195,1.74790358543396,-1.0255709886550903,1.011589765548706
2026-04-02 12:57:04.806,1565.811607714,302719564,right_foot,右脚,D4:22:CD:00:85:22,0.7915323376655579,0.1479935646057129,-0.40627849102020264,0.43187111616134644,-10.553161836971181,-50.44315260222202,62.216755541610326,7.100902557373047,-1.1349459886550903,5.987585544586182,1.75227689743042,-1.085799217224121,1.1017144918441772
2026-04-02 12:57:04.836,1565.841426091,302752898,right_foot,右脚,D4:22:CD:00:85:22,0.7914513945579529,0.14808852970600128,-0.40630587935447693,0.4319608807563782,-10.552192931359743,-50.450923025013246,62.23211289246427,7.103194713592529,-1.129507303237915,5.995868682861328,1.6949942111968994,-1.1301668882369995,1.1055434942245483
2026-04-02 12:57:04.866,1565.87166554,302786232,right_foot,右脚,D4:22:CD:00:85:22,0.7913814783096313,0.1481713503599167,-0.4063376188278198,0.43203064799308777,-10.55152956742071,-50.45863446130062,62.24470704645012,7.1034393310546875,-1.126275658607483,5.9842376708984375,1.642468810081482,-1.1345785856246948,1.0672523975372314
2026-04-02 12:57:04.896,1565.901624892,302819566,right_foot,右脚,D4:22:CD:00:85:22,0.7913055419921875,0.14825257658958435,-0.4063728451728821,0.43210870027542114,-10.5521904663729,-50.46649983293151,62.25923835216764,7.111595630645752,-1.1257612705230713,5.98653507232666,1.6681137084960938,-1.1611584424972534,1.116108775138855
2026-04-02 12:57:04.926,1565.931608728,302852900,right_foot,右脚,D4:22:CD:00:85:22,0.7912517189979553,0.14832399785518646,-0.40638673305511475,0.43216991424560547,-10.55013281355985,-50.47171757763729,62.26895704800631,7.101957321166992,-1.1343969106674194,5.990852355957031,1.714402198791504,-1.0900062322616577,1.0982182025909424
2026-04-02 12:57:04.987,1565.992125442,302886234,right_foot,右脚,D4:22:CD:00:85:22,0.7912009954452515,0.14836791157722473,-0.40639787912368774,0.4322369694709778,-10.551722569116487,-50.474817323757776,62.28063075060007,7.104025363922119,-1.1308149099349976,5.985091686248779,1.6556082963943481,-1.047431468963623,1.1470937728881836
