local_time,arrival_time_monotonic,timestamp_us,role,role_label,mac_address,quat_w,quat_x,quat_y,quat_z,euler_x,euler_y,euler_z,acc_x,acc_y,acc_z,gyro_x,gyro_y,gyro_z
2026-04-02 13:02:21.646,1880.652506753,525731846,left_foot,左脚,D4:22:CD:00:84:61,0.8842981457710266,0.054074231535196304,-0.45000940561294556,0.11218075454235077,-0.5182821778681548,-53.902633496397335,14.723203636579187,-0.06355162709951401,0.0047913845628499985,-0.05425672233104706,-0.0017374499002471566,-0.003497085766866803,-0.0004237694665789604
2026-04-02 13:02:21.677,1880.683570868,525748513,left_foot,左脚,D4:22:CD:00:84:61,0.882149875164032,0.05003242567181587,-0.45390585064888,0.11523086577653885,-1.6051998326767478,-54.32678923352247,15.70795735134175,8.093071937561035,-1.0516961812973022,5.477952003479004,-4.48246431350708,-26.510456085205078,2.162018299102783
2026-04-02 13:02:21.707,1880.713561626,525781847,left_foot,左脚,D4:22:CD:00:84:61,0.8768384456634521,0.04120217636227608,-0.4632796049118042,0.12177439033985138,-4.090735612297038,-55.3335505961678,17.958526435125552,8.061647415161133,-0.5482764840126038,5.34402322769165,1.6003895998001099,-19.14333724975586,-4.31449556350708
2026-04-02 13:02:21.736,1880.742328504,525815181,left_foot,左脚,D4:22:CD:00:84:61,0.8737552165985107,0.04081207141280174,-0.46847105026245117,0.12418252229690552,-4.616097816055638,-55.97506672823128,18.63207191999458,7.882047653198242,0.4522831439971924,5.550846099853516,-3.0616607666015625,-13.486498832702637,1.8745759725570679
2026-04-02 13:02:21.767,1880.773573182,525848515,left_foot,左脚,D4:22:CD:00:84:61,0.8711944818496704,0.04211818054318428,-0.4728909134864807,0.12498147785663605,-4.665435324023769,-56.56255592051518,18.838986844926357,7.815444469451904,-0.5219612121582031,5.877540111541748,-7.140491008758545,-18.42821502685547,5.542559623718262
2026-04-02 13:02:21.797,1880.803456945,525881849,left_foot,左脚,D4:22:CD:00:84:61,0.8665401935577393,0.04314189404249191,-0.4808772802352905,0.12650756537914276,-5.0213163180422065,-57.598545356681996,19.37368714405803,7.715515613555908,-0.5943596363067627,6.65242862701416,-4.34757661819458,-40.35641098022461,5.01039457321167
2026-04-02 13:02:21.827,1880.833550937,525915183,left_foot,左脚,D4:22:CD:00:84:61,0.8579031825065613,0.045609522610902786,-0.49526089429855347,0.12899135053157806,-5.5965381382414465,-59.48971865292267,20.301218290371843,7.976285934448242,-0.33712998032569885,7.613298416137695,0.5893909335136414,-73.99295043945312,7.063036918640137
2026-04-02 13:02:21.857,1880.863607657,525948517,left_foot,左脚,D4:22:CD:00:84:61,0.8449616432189941,0.050915513187646866,-0.5160222053527832,0.13102953135967255,-6.073515640160283,-62.29839645538623,21.302553405225844,8.709355354309082,-1.3161308765411377,7.705651760101318,6.6418609619140625,-106.81990814208984,3.0728647708892822
2026-04-02 13:02:21.917,1880.923576043,525981851,left_foot,左脚,D4:22:CD:00:84:61,0.8252353668212891,0.05922823026776314,-0.5461048483848572,0.13133244216442108,-6.572738005737347,-66.47516442144416,22.394995230696928,8.793147087097168,-0.594510555267334,7.751214027404785,10.045559883117676,-150.37057495117188,-4.349572658538818
2026-04-02 13:02:21.947,1880.953587767,526015185,left_foot,左脚,D4:22:CD:00:84:61,0.7970107197761536,0.06893870234489441,-0.5861720442771912,0.12815558910369873,-7.578441639618834,-72.18333169584136,23.79778602390215,9.060189247131348,-1.0870362520217896,7.811687469482422,8.682845115661621,-198.26922607421875,-8.127422332763672
2026-04-02 13:02:21.977,1880.983620642,526048519,left_foot,左脚,D4:22:CD:00:84:61,0.7549765110015869,0.0859484001994133,-0.638542652130127,0.12201150506734848,-8.72152558015804,-80.11109865709771,25.69715864354905,9.853972434997559,-0.8155761957168579,10.34604549407959,20.936092376708984,-268.0729064941406,-23.716211318969727
2026-04-02 13:02:22.008,1881.014242144,526081853,left_foot,左脚,D4:22:CD:00:84:61,0.6953755021095276,0.1013818010687828,-0.7019751667976379,0.11578300595283508,-105.7868732066012,-88.71636807795144,123.4544199439021,13.899343490600586,3.2810256481170654,12.752638816833496,16.51375961303711,-344.6937561035156,-7.301258087158203
2026-04-02 13:02:22.036,1881.042502514,526115187,left_foot,左脚,D4:22:CD:00:84:61,0.6252155303955078,0.120212621986866,-0.761720597743988,0.12015089392662048,-170.19389935166555,-78.92195489818828,-170.1420806586716,10.499281883239746,-0.35247576236724854,6.803225994110107,55.613277435302734,-368.0949401855469,20.309326171875
2026-04-02 13:02:22.067,1881.073499821,526148521,left_foot,左脚,D4:22:CD:00:84:61,0.6058384776115417,0.14378072321414948,-0.7696226835250854,0.1413078010082245,-169.15526971266868,-76.69744718904339,-167.42522206497347,17.53966522216797,5.915308475494385,7.084638595581055,110.64081573486328,-116.62731170654297,2.9787638187408447
2026-04-02 13:02:22.098,1881.104573655,526181855,left_foot,左脚,D4:22:CD:00:84:61,0.6364565491676331,0.13257570564746857,-0.7451684474945068,0.1485627144575119,-160.13239425904914,-81.08751880897034,-176.8641303316022,1.817781925201416,2.4469282627105713,9.850337028503418,-6.827322483062744,89.66047668457031,34.19753646850586
2026-04-02 13:02:22.126,1881.132356342,526215189,left_foot,左脚,D4:22:CD:00:84:61,0.672431468963623,0.13536377251148224,-0.7086530327796936,0.16529838740825653,-128.14696123328335,-86.19175189342022,152.7102892052154,3.0771055221557617,-0.27838143706321716,5.617408752441406,49.89961242675781,128.30992126464844,8.481401443481445
2026-04-02 13:02:22.158,1881.164363842,526248523,left_foot,左脚,D4:22:CD:00:84:61,0.7250034213066101,0.12393762916326523,-0.6541927456855774,0.1761852502822876,-24.14516293896446,-82.86490061065226,48.69832189262768,5.812163352966309,2.1471307277679443,4.38148307800293,3.763399600982666,220.5409393310547,10.819965362548828
2026-04-02 13:02:22.217,1881.223676867,526281857,left_foot,左脚,D4:22:CD:00:84:61,0.7866096496582031,0.1103537529706955,-0.5816946625709534,0.17521050572395325,-5.7744861633697,-72.51648965490725,29.351261875714435,5.778560161590576,-0.8588510751724243,4.210299968719482,-22.410221099853516,287.35089111328125,-29.155574798583984
2026-04-02 13:02:22.247,1881.253765689,526315191,left_foot,左脚,D4:22:CD:00:84:61,0.8415993452072144,0.09919895976781845,-0.5030137896537781,0.16984595358371735,-0.47091524786812095,-61.68689242197802,23.100800765981454,7.588680267333984,-0.31177961826324463,4.8668670654296875,-18.29360580444336,292.3153991699219,-47.541290283203125
2026-04-02 13:02:22.277,1881.28343326,526348525,left_foot,左脚,D4:22:CD:00:84:61,0.8870701193809509,0.09166528284549713,-0.41929566860198975,0.16998617351055145,1.8208460312614394,-50.80983061683978,20.830924391569084,11.221360206604004,-0.07839323580265045,5.430991172790527,8.356738090515137,295.38323974609375,-36.086299896240234
2026-04-02 13:02:22.306,1881.312757839,526381859,left_foot,左脚,D4:22:CD:00:84:61,0.9251096248626709,0.0886322408914566,-0.3270966410636902,0.1712436079978943,3.8591728370887677,-39.46122388956042,19.58964592230161,15.153148651123047,0.45380014181137085,6.72640323638916,31.347251892089844,314.68011474609375,-38.75334548950195
2026-04-02 13:02:22.336,1881.342568745,526415193,left_foot,左脚,D4:22:CD:00:84:61,0.9544677138328552,0.08609818667173386,-0.23065561056137085,0.1684531718492508,5.631149416302725,-27.989756121360475,18.61349058932674,18.319164276123047,-0.6797324419021606,7.339875221252441,35.00703811645508,330.9897155761719,-50.85026550292969
2026-04-02 13:02:22.367,1881.373679328,526448527,left_foot,左脚,D4:22:CD:00:84:61,0.9713327288627625,0.09040999412536621,-0.13792730867862701,0.17121616005897522,7.733015106038883,-17.39189938771016,18.809077141401747,23.716270446777344,0.46570903062820435,1.3068459033966064,64.929443359375,315.6100158691406,-31.48143196105957
2026-04-02 13:02:22.397,1881.403681583,526481861,left_foot,左脚,D4:22:CD:00:84:61,0.9780512452125549,0.08652681112289429,-0.08079542964696884,0.171468123793602,8.285709785418497,-10.81959575246113,19.101616718466065,22.187833786010742,-2.761355400085449,-10.531913757324219,18.56732749938965,196.7899627685547,-19.115577697753906
2026-04-02 13:02:22.427,1881.433629733,526515195,left_foot,左脚,D4:22:CD:00:84:61,0.9797977805137634,0.07145664095878601,-0.09148422628641129,0.1628522425889969,6.463048094308274,-11.685872480601034,18.211649992817776,21.22121810913086,-1.9831664562225342,-19.453998565673828,-59.92634582519531,-28.955181121826172,-22.701969146728516
2026-04-02 13:02:22.457,1881.463520558,526548529,left_foot,左脚,D4:22:CD:00:84:61,0.9761735796928406,0.050979133695364,-0.13478098809719086,0.16223622858524323,3.3316466876469377,-16.241139110993913,18.396658131743997,9.001128196716309,-1.7826508283615112,8.184727668762207,-92.5914535522461,-135.7172088623047,17.03118896484375
2026-04-02 13:02:22.517,1881.523362352,526581863,left_foot,左脚,D4:22:CD:00:84:61,0.9685941934585571,0.04629655182361603,-0.1898396611213684,0.15376313030719757,1.9411634936446758,-22.45715652757085,17.655321966915796,6.924397945404053,-5.6070709228515625,7.770435810089111,-49.02889633178711,-187.67079162597656,-12.371018409729004
2026-04-02 13:02:22.547,1881.553390721,526615197,left_foot,左脚,D4:22:CD:00:84:61,0.958784818649292,0.05012072995305061,-0.23533666133880615,0.1511172503232956,1.6184485202733991,-27.802326892449845,17.51320193893372,18.61874771118164,1.4744216203689575,4.987944602966309,-11.436890602111816,-160.85067749023438,1.12333345413208
2026-04-02 13:02:22.581,1881.586818417,526648531,left_foot,左脚,D4:22:CD:00:84:61,0.9528020620346069,0.04902435094118118,-0.25743797421455383,0.15326707065105438,0.9634774211620031,-30.3713472091089,18.015033305656456,11.159215927124023,-1.635960340499878,5.111216068267822,-12.373560905456543,-77.10977935791016,14.937213897705078
2026-04-02 13:02:22.607,1881.61331809,526681865,left_foot,左脚,D4:22:CD:00:84:61,0.9490039944648743,0.049222640693187714,-0.2713470458984375,0.15277324616909027,0.710560628067,-32.00940678498135,18.086522212264473,7.880971431732178,-1.5777312517166138,6.111660003662109,-6.497063159942627,-49.56241226196289,2.5872652530670166
2026-04-02 13:02:22.637,1881.643393392,526715199,left_foot,左脚,D4:22:CD:00:84:61,0.9469990730285645,0.052521947771310806,-0.2794063091278076,0.1495545357465744,1.0867747237889904,-33.01815068876353,17.626488786438507,8.27264404296875,-1.3024415969848633,5.474575996398926,3.8563172817230225,-30.97007942199707,-11.132789611816406
2026-04-02 13:02:22.666,1881.672578429,526748533,left_foot,左脚,D4:22:CD:00:84:61,0.9463750123977661,0.05580693483352661,-0.28229019045829773,0.14687548577785492,1.5587465825665563,-33.41491017251873,17.175725626392218,7.8159990310668945,0.28106361627578735,5.890598297119141,6.730014324188232,-12.719746589660645,-11.003668785095215
2026-04-02 13:02:22.698,1881.704465402,526781867,left_foot,左脚,D4:22:CD:00:84:61,0.9460504651069641,0.05617407709360123,-0.2836282551288605,0.14624731242656708,1.6044749178177582,-33.57882941046953,17.0911469865598,7.667713165283203,0.64956134557724,5.745065689086914,-0.07423843443393707,-5.553987979888916,-1.9323188066482544
2026-04-02 13:02:22.726,1881.732508607,526815201,left_foot,左脚,D4:22:CD:00:84:61,0.9464586973190308,0.05510827526450157,-0.2823271155357361,0.1465294361114502,1.4811008410458142,-33.40623745172962,17.156707279614444,7.689950942993164,0.1461970955133438,5.775329113006592,-2.671213388442993,4.635396957397461,1.55437433719635
2026-04-02 13:02:22.757,1881.763413078,526848535,left_foot,左脚,D4:22:CD:00:84:61,0.9462301135063171,0.05250641331076622,-0.2823021411895752,0.14898721873760223,1.0460088152666582,-33.35954369501351,17.582491740908853,7.416144371032715,0.7334785461425781,5.775644302368164,-6.087088584899902,1.0516180992126465,10.692008972167969
2026-04-02 13:02:22.817,1881.823519293,526881869,left_foot,左脚,D4:22:CD:00:84:61,0.9450525641441345,0.04998001456260681,-0.2856455147266388,0.15094561874866486,0.5671139526740983,-33.70991713803296,17.977666490736176,7.429792404174805,-0.20092971622943878,5.89066743850708,-7.880930423736572,-10.951874732971191,10.090544700622559
2026-04-02 13:02:22.847,1881.853502242,526915203,left_foot,左脚,D4:22:CD:00:84:61,0.9429930448532104,0.047662027180194855,-0.291748046875,0.15289101004600525,0.04711655178682351,-34.388881277260445,18.404302052558307,7.469771862030029,0.03488596901297569,5.958739280700684,-8.492362976074219,-20.901790618896484,10.773381233215332
2026-04-02 13:02:22.876,1881.88236262,526948537,left_foot,左脚,D4:22:CD:00:84:61,0.9402514696121216,0.045263007283210754,-0.3000560998916626,0.15441834926605225,-0.5302966211957674,-35.3265050221887,18.821829193833604,7.7376604080200195,-0.3711857795715332,5.883024215698242,-10.220192909240723,-28.77971649169922,10.21944808959961
2026-04-02 13:02:22.907,1881.913455558,526981871,left_foot,左脚,D4:22:CD:00:84:61,0.937063455581665,0.04402249678969383,-0.3096539378166199,0.15520507097244263,-0.9698024516926973,-36.44107536934942,19.128200099066515,7.814318656921387,-0.826579749584198,5.717582702636719,-7.846656322479248,-34.14719009399414,7.064151763916016
2026-04-02 13:02:22.936,1881.942366195,527015205,left_foot,左脚,D4:22:CD:00:84:61,0.9332795739173889,0.04442940279841423,-0.32062259316444397,0.15561705827713013,-1.2218021432973687,-37.75518465824033,19.350858730441807,7.874324321746826,-0.6930171251296997,6.078083038330078,-3.5730159282684326,-40.13493347167969,4.624015808105469
2026-04-02 13:02:22.967,1881.973358192,527048539,left_foot,左脚,D4:22:CD:00:84:61,0.9278426170349121,0.04689521715044975,-0.33526676893234253,0.1565416157245636,-1.3335715557777195,-39.55596299814912,19.63257936824411,7.887140274047852,-0.45055264234542847,6.8099870681762695,1.8833919763565063,-54.78208541870117,5.444880962371826
2026-04-02 13:02:22.997,1882.0033412,527081873,left_foot,左脚,D4:22:CD:00:84:61,0.9201362729072571,0.051814768463373184,-0.3552592992782593,0.1563824862241745,-1.2163766015665403,-42.06549476670739,19.758902723648415,8.1688232421875,-1.280349850654602,6.7793498039245605,5.950333118438721,-75.96769714355469,1.2420583963394165
2026-04-02 13:02:23.026,1882.032326119,527115207,left_foot,左脚,D4:22:CD:00:84:61,0.9089840054512024,0.06008727476000786,-0.3826715350151062,0.153949573636055,-0.7029568319248585,-45.57645983295431,19.520628849902693,8.411511421203613,-0.9637571573257446,7.334529399871826,10.414047241210938,-105.87245178222656,-6.883331775665283
2026-04-02 13:02:23.056,1882.062416939,527148541,left_foot,左脚,D4:22:CD:00:84:61,0.8919558525085449,0.07022636383771896,-0.4206714630126953,0.15006355941295624,-0.0880121996033493,-50.49032546862252,19.14163099442613,8.746553421020508,0.03860839456319809,7.724156379699707,9.944790840148926,-148.02337646484375,-8.58660888671875
2026-04-02 13:02:23.118,1882.124282935,527181875,left_foot,左脚,D4:22:CD:00:84:61,0.8645806312561035,0.08072138577699661,-0.4737046957015991,0.14693094789981842,0.04008681228948344,-57.44043046151829,19.267973064900325,9.266576766967773,1.5172319412231445,9.682929039001465,6.852573394775391,-209.20376586914062,2.1958048343658447
2026-04-02 13:02:23.147,1882.153401266,527215209,left_foot,左脚,D4:22:CD:00:84:61,0.8161824345588684,0.09589456021785736,-0.5503158569335938,0.14765894412994385,-0.9118676738217764,-67.91627014558661,21.123497278549426,11.567971229553223,2.3438098430633545,12.717424392700195,20.974586486816406,-315.2166442871094,23.27642822265625
2026-04-02 13:02:23.179,1882.185321059,527248543,left_foot,左脚,D4:22:CD:00:84:61,0.7453740239143372,0.10784947127103806,-0.6392565965652466,0.15536156296730042,-13.356347925977513,-80.56831660666644,34.88276297478177,13.880908966064453,4.1780524253845215,12.631903648376465,26.278287887573242,-388.8254089355469,64.54833221435547
2026-04-02 13:02:23.237,1882.243411667,527281877,left_foot,左脚,D4:22:CD:00:84:61,0.6804202198982239,0.11609508097171783,-0.7023328542709351,0.1740088313817978,-98.87607781876433,-84.98106127859003,122.57386882472593,7.878833770751953,2.4847142696380615,6.280722141265869,52.4820442199707,-303.3369140625,88.0910415649414
2026-04-02 13:02:23.238,1882.244565444,527315211,left_foot,左脚,D4:22:CD:00:84:61,0.6796771287918091,0.12198211252689362,-0.7017104625701904,0.1753913313150406,-100.2692590259208,-85.31723443824227,124.56675987291518,16.65711212158203,4.558065891265869,9.433810234069824,17.686723709106445,-4.422463417053223,-10.530278205871582
2026-04-02 13:02:23.268,1882.274270174,527348545,left_foot,左脚,D4:22:CD:00:84:61,0.7013852000236511,0.12119253724813461,-0.6813382506370544,0.17073285579681396,-56.047408497362525,-85.66858841050752,79.89024296701685,0.6204512715339661,-0.4359290599822998,8.530468940734863,-10.009211540222168,97.22834014892578,-30.299787521362305
2026-04-02 13:02:23.299,1882.305593537,527381879,left_foot,左脚,D4:22:CD:00:84:61,0.7371304035186768,0.12564636766910553,-0.6414927244186401,0.17128685116767883,-13.35663945785078,-81.40536718785516,37.66644394652271,4.297013282775879,1.6341075897216797,4.948662757873535,20.43328857421875,176.1833038330078,-46.473567962646484
2026-04-02 13:02:23.327,1882.333455192,527415213,left_foot,左脚,D4:22:CD:00:84:61,0.7843297123908997,0.11035866290330887,-0.5861961245536804,0.17035862803459167,-5.2721903395479,-73.16506528429358,28.4231441135051,4.391857147216797,-0.3866755962371826,3.8649892807006836,-28.755416870117188,251.7672576904297,-20.109773635864258
2026-04-02 13:02:23.357,1882.36351278,527448547,left_foot,左脚,D4:22:CD:00:84:61,0.8316208124160767,0.10033833235502243,-0.5191839933395386,0.16966867446899414,-1.207666927796522,-63.84132586728643,23.814973655207005,7.42332124710083,-0.6634869575500488,3.8845512866973877,-7.217164516448975,280.7003479003906,-34.673255920410156
2026-04-02 13:02:23.418,1882.424717999,527481881,left_foot,左脚,D4:22:CD:00:84:61,0.8766659498214722,0.08818178623914719,-0.44223859906196594,0.16764885187149048,0.6113091480712214,-53.60619229508918,21.34360922818749,10.592016220092773,0.3929693102836609,4.402207374572754,-9.125946998596191,306.07806396484375,-36.818607330322266
2026-04-02 13:02:23.447,1882.453556289,527515215,left_foot,左脚,D4:22:CD:00:84:61,0.9135940074920654,0.07876992225646973,-0.3609548807144165,0.16986191272735596,1.6783630507462772,-43.337324915823764,20.398266006862364,12.557967185974121,0.3484938144683838,5.2095746994018555,10.566463470458984,306.66162109375,-24.86663818359375
2026-04-02 13:02:23.477,1882.483553882,527548549,left_foot,左脚,D4:22:CD:00:84:61,0.9424642324447632,0.07958474010229111,-0.2777429521083832,0.16818657517433167,3.885936190165204,-33.38728981892437,19.07053635327127,15.510885238647461,-1.2282166481018066,6.672339916229248,41.21287536621094,295.8682556152344,-45.63080978393555
2026-04-02 13:02:23.507,1882.513563548,527581883,left_foot,左脚,D4:22:CD:00:84:61,0.963866114616394,0.09787901490926743,-0.18904940783977509,0.1601334661245346,8.02075636399537,-23.314867447196704,17.208145414805728,20.41668128967285,-0.40571099519729614,5.124297618865967,97.10552215576172,294.9969482421875,-80.29365539550781
2026-04-02 13:02:23.538,1882.544146465,527615217,left_foot,左脚,D4:22:CD:00:84:61,0.9744557738304138,0.10373818129301071,-0.11139232665300369,0.16512610018253326,9.838683228538091,-14.55761491136633,17.97564028661301,23.257404327392578,2.5112314224243164,-1.885140061378479,61.841087341308594,262.9933776855469,-19.313199996948242
2026-04-02 13:02:23.567,1882.573408279,527648551,left_foot,左脚,D4:22:CD:00:84:61,0.9774987697601318,0.11315356940031052,-0.07325761020183563,0.16225402057170868,11.578964124119365,-10.366124000027687,17.79520082844219,18.81350326538086,-6.160524368286133,-11.7962064743042,50.93928909301758,123.23118591308594,-28.759246826171875
2026-04-02 13:02:23.597,1882.603358075,527681885,left_foot,左脚,D4:22:CD:00:84:61,0.9787101149559021,0.08104382455348969,-0.10202649235725403,0.15858590602874756,7.447209276534833,-13.027190365012801,17.556448502936288,18.8707332611084,-0.5167220234870911,-15.77474308013916,-125.4349365234375,-78.7725830078125,6.018038272857666
2026-04-02 13:02:23.627,1882.633492636,527715219,left_foot,左脚,D4:22:CD:00:84:61,0.9747183918952942,0.0508769266307354,-0.144614577293396,0.16255062818527222,3.1332394728666437,-17.364949534883877,18.457215359789412,5.78127384185791,-6.836677074432373,12.676488876342773,-122.25823211669922,-125.77677154541016,37.82412338256836
2026-04-02 13:02:23.657,1882.663443206,527748553,left_foot,左脚,D4:22:CD:00:84:61,0.9661628603935242,0.04922303184866905,-0.19925330579280853,0.15622086822986603,2.0550623607165,-23.603277417276768,17.940130054743246,11.523277282714844,-6.547148704528809,7.971773147583008,-37.46552276611328,-186.53009033203125,-6.204421043395996
2026-04-02 13:02:23.717,1882.723584699,527781887,left_foot,左脚,D4:22:CD:00:84:61,0.957595705986023,0.051928188651800156,-0.23831807076931,0.15335947275161743,1.71350140605681,-28.18706227829861,17.767147666921407,15.089058876037598,3.8009157180786133,4.546140193939209,-12.198346138000488,-136.39356994628906,-0.3383115231990814
2026-04-02 13:02:23.747,1882.753618385,527815221,left_foot,左脚,D4:22:CD:00:84:61,0.9521623849868774,0.04877803102135658,-0.25926631689071655,0.15423758327960968,0.859367626499863,-30.582180617354517,18.16749745729496,10.49245834350586,-1.7330533266067505,5.118597030639648,-19.560548782348633,-70.29106903076172,11.953147888183594
2026-04-02 13:02:23.777,1882.783501314,527848555,left_foot,左脚,D4:22:CD:00:84:61,0.9486244916915894,0.04876664653420448,-0.2724672257900238,0.15328314900398254,0.608494173952652,-32.133107802196754,18.182314373712092,8.316920280456543,-3.0079572200775146,5.8862481117248535,-7.093795299530029,-45.29239273071289,0.8386903405189514
2026-04-02 13:02:23.807,1882.813581876,527881889,left_foot,左脚,D4:22:CD:00:84:61,0.9469102621078491,0.0533624067902565,-0.2791494131088257,0.15029914677143097,1.1715722557311472,-33.0041028959337,17.691072323943157,8.077914237976074,-0.9631333351135254,5.689173698425293,9.19344711303711,-25.196208953857422,-12.1846284866333
2026-04-02 13:02:23.837,1882.843623751,527915223,left_foot,左脚,D4:22:CD:00:84:61,0.9452757835388184,0.05642474442720413,-0.28481942415237427,0.14882315695285797,1.508798318679204,-33.72863519882512,17.436876711350248,7.585485935211182,1.18912935256958,5.987316608428955,6.117512226104736,-20.849763870239258,-6.023849010467529
2026-04-02 13:02:23.867,1882.87353363,527948557,left_foot,左脚,D4:22:CD:00:84:61,0.9440494775772095,0.055219605565071106,-0.2885092794895172,0.14994844794273376,1.2280259929306976,-34.145321981291694,17.673242803518686,7.8580241203308105,0.2894029915332794,5.52492618560791,-4.33823823928833,-11.400555610656738,6.058882236480713
2026-04-02 13:02:23.897,1882.903641172,527981891,left_foot,左脚,D4:22:CD:00:84:61,0.94402676820755,0.053623657673597336,-0.28825923800468445,0.1511472463607788,0.9758770028718106,-34.08751185085506,17.89356276917631,7.820826530456543,-0.3158990144729614,5.586055755615234,-3.7443294525146484,2.759568452835083,5.33211612701416
2026-04-02 13:02:23.927,1882.933677693,528015225,left_foot,左脚,D4:22:CD:00:84:61,0.9436947703361511,0.052451495081186295,-0.28897005319595337,0.15226981043815613,0.7611541608882316,-34.1507466602015,18.098103939517767,7.587797164916992,0.11236079037189484,5.6404571533203125,-2.8901445865631104,-0.9186638593673706,5.010342597961426
2026-04-02 13:02:23.957,1882.963709294,528048559,left_foot,左脚,D4:22:CD:00:84:61,0.9423013925552368,0.04963046684861183,-0.2926084101200104,0.15487389266490936,0.20161145569999384,-34.52899039300499,18.604382673271243,7.411787033081055,0.6747141480445862,5.678770065307617,-8.136455535888672,-10.426203727722168,12.56564998626709
2026-04-02 13:02:24.017,1883.023659701,528081893,left_foot,左脚,D4:22:CD:00:84:61,0.9404935240745544,0.04665020480751991,-0.2975929081439972,0.15727481245994568,-0.41013718133594906,-35.06053029636214,19.116537136069248,7.577097415924072,-0.4081725478172302,5.945488452911377,-9.530024528503418,-15.354982376098633,12.550004005432129
2026-04-02 13:02:24.047,1883.053728721,528115227,left_foot,左脚,D4:22:CD:00:84:61,0.9377174377441406,0.04388849809765816,-0.30558350682258606,0.15930986404418945,-1.0656020913966284,-35.95042679693418,19.62969837354181,7.668690204620361,-0.26991385221481323,6.068670272827148,-10.684745788574219,-26.45758819580078,12.169171333312988
2026-04-02 13:02:24.077,1883.083616627,528148561,left_foot,左脚,D4:22:CD:00:84:61,0.934496283531189,0.0420430563390255,-0.3148450255393982,0.1606953889131546,-1.622525996247822,-37.010004731565225,20.057319395804004,7.951358318328857,-0.8345489501953125,5.76456356048584,-9.050141334533691,-31.78013038635254,9.558226585388184
2026-04-02 13:02:24.107,1883.113361935,528181895,left_foot,左脚,D4:22:CD:00:84:61,0.9304667115211487,0.04122196510434151,-0.3260234296321869,0.16199521720409393,-2.1122916697624246,-38.32070792864947,20.486535417173783,7.931655406951904,-0.6777076721191406,6.054421901702881,-6.794281959533691,-39.50141906738281,8.898975372314453
2026-04-02 13:02:24.137,1883.14366919,528215229,left_foot,左脚,D4:22:CD:00:84:61,0.924885094165802,0.043638695031404495,-0.3411550223827362,0.1621648222208023,-2.2447787740618264,-40.181504733283,20.710900246259012,7.984939098358154,-1.8480877876281738,6.707839012145996,0.3106733560562134,-55.94105911254883,3.079829454421997
2026-04-02 13:02:24.167,1883.173657281,528248563,left_foot,左脚,D4:22:CD:00:84:61,0.9174643158912659,0.05359457805752754,-0.36101818084716797,0.15828333795070648,-1.2450939259400429,-42.79741876098112,20.064854190523914,8.211257934570312,-2.1766624450683594,7.081916332244873,17.195634841918945,-78.02886199951172,-16.941513061523438
2026-04-02 13:02:24.197,1883.203695437,528281897,left_foot,左脚,D4:22:CD:00:84:61,0.9052427411079407,0.06642771512269974,-0.39092642068862915,0.15264366567134857,0.07702052145848805,-46.722807433617795,19.10929412157178,8.24792194366455,0.3270346522331238,8.309496879577637,19.509716033935547,-117.6474380493164,-21.61606788635254
2026-04-02 13:02:24.227,1883.233561423,528315231,left_foot,左脚,D4:22:CD:00:84:61,0.8846827149391174,0.07756347209215164,-0.4350345730781555,0.1485467106103897,0.7513129395039886,-52.44589198517978,18.69312572920896,8.934924125671387,0.9039369225502014,8.257789611816406,10.7099027633667,-171.93783569335938,-6.883691787719727
2026-04-02 13:02:24.257,1883.263658132,528348565,left_foot,左脚,D4:22:CD:00:84:61,0.8525712490081787,0.08725525438785553,-0.4943649470806122,0.14530271291732788,0.5911546070096976,-60.26386197759048,19.000723637437996,8.88836669921875,1.2344940900802612,9.829386711120605,2.8644442558288574,-234.75360107421875,7.873465538024902
2026-04-02 13:02:24.317,1883.323669193,528381899,left_foot,左脚,D4:22:CD:00:84:61,0.8026537299156189,0.0982103943824768,-0.5706963539123535,0.1428566724061966,-0.9390123951789827,-70.76973474111482,20.850663824146924,11.659465789794922,1.8510218858718872,11.939498901367188,4.7608642578125,-315.6647644042969,22.116090774536133
2026-04-02 13:02:24.346,1883.352429665,528415233,left_foot,左脚,D4:22:CD:00:84:61,0.7314488291740417,0.10847116261720657,-0.6575574278831482,0.14434504508972168,-15.580714892214049,-83.34062778117833,36.21193831515865,12.674762725830078,1.9987462759017944,10.411471366882324,12.583051681518555,-385.4098815917969,48.485145568847656
2026-04-02 13:02:24.377,1883.383585728,528448567,left_foot,左脚,D4:22:CD:00:84:61,0.6662843823432922,0.12462097406387329,-0.7188897728919983,0.1540561020374298,-139.395752271513,-85.11407548742562,162.14622037706155,9.223065376281738,2.105837345123291,5.122681617736816,56.447608947753906,-307.2138977050781,43.34212875366211
2026-04-02 13:02:24.407,1883.413626278,528481901,left_foot,左脚,D4:22:CD:00:84:61,0.676994264125824,0.12306173145771027,-0.7116960883140564,0.14150716364383698,-141.22099176902358,-86.81521348161331,162.79408227293365,16.228763580322266,5.832984447479248,9.275762557983398,-35.41474533081055,37.3843879699707,-33.37296676635742
2026-04-02 13:02:24.437,1883.443615701,528515235,left_foot,左脚,D4:22:CD:00:84:61,0.7066619992256165,0.12289845198392868,-0.6843261122703552,0.13123786449432373,-10.119955865425224,-88.06803415521074,30.8276712562916,3.2065114974975586,-1.0682827234268188,7.474002361297607,-24.805328369140625,130.7626953125,-49.17234420776367
2026-04-02 13:02:24.497,1883.503556704,528548569,left_foot,左脚,D4:22:CD:00:84:61,0.750694751739502,0.11299832165241241,-0.6383041739463806,0.1275041401386261,2.4689685203793714,-80.80777399378005,17.177546663128663,4.437687873840332,3.3899290561676025,4.674005031585693,-30.763216018676758,217.0323486328125,-24.822294235229492
2026-04-02 13:02:24.498,1883.504126174,528581903,left_foot,左脚,D4:22:CD:00:84:61,0.7974223494529724,0.0892517939209938,-0.582785427570343,0.12850578129291534,-1.398290664814321,-72.24893974266993,19.32977527560421,4.070853233337402,-0.7537095546722412,4.021721363067627,-53.059696197509766,255.45626831054688,12.952936172485352
2026-04-02 13:02:24.527,1883.533524548,528615237,left_foot,左脚,D4:22:CD:00:84:61,0.8425276875495911,0.0713769942522049,-0.5184478759765625,0.12753385305404663,-1.5155643932124518,-63.10268804503882,18.14573628695412,6.986638069152832,0.9213687777519226,4.434139728546143,-36.52884292602539,273.2674865722656,-6.317697525024414
2026-04-02 13:02:24.557,1883.563678394,528648571,left_foot,左脚,D4:22:CD:00:84:61,0.8849659562110901,0.058602914214134216,-0.4449581205844879,0.12415318936109543,-0.6488442436331331,-53.330764837839034,16.297825478959055,9.394205093383789,0.03376917541027069,4.797208786010742,-21.387964248657227,292.358642578125,-23.50738525390625
2026-04-02 13:02:24.617,1883.623591816,528681905,left_foot,左脚,D4:22:CD:00:84:61,0.9197080135345459,0.05572105199098587,-0.3660985231399536,0.13040295243263245,0.5536922091052837,-43.46721284043474,15.919329521200586,12.673900604248047,1.1450079679489136,5.731215953826904,27.33235740661621,294.8245849609375,-7.145764350891113
2026-04-02 13:02:24.647,1883.653494597,528715239,left_foot,左脚,D4:22:CD:00:84:61,0.947365939617157,0.05673729628324509,-0.28112420439720154,0.14229807257652283,1.8848388820538848,-33.28484416884705,16.520922175581795,15.556048393249512,-0.1153448298573494,6.977564334869385,50.869869232177734,304.93359375,7.81228494644165
2026-04-02 13:02:24.678,1883.684314449,528748573,left_foot,左脚,D4:22:CD:00:84:61,0.9675237536430359,0.06679318100214005,-0.19283661246299744,0.14916856586933136,4.473370383216171,-23.14594530671671,16.61270452645007,17.550867080688477,-1.640931487083435,6.581300258636475,78.60323333740234,303.50439453125,-14.356648445129395
2026-04-02 13:02:24.707,1883.713361434,528781907,left_foot,左脚,D4:22:CD:00:84:61,0.9777042269706726,0.0866847112774849,-0.11263556778430939,0.15457741916179657,7.989424195062592,-14.302858420498367,16.964453463228104,22.259496688842773,-1.1258556842803955,-0.39848875999450684,108.6025161743164,265.13726806640625,-18.898828506469727
2026-04-02 13:02:24.737,1883.743438651,528815241,left_foot,左脚,D4:22:CD:00:84:61,0.9806349277496338,0.10326296091079712,-0.06392627954483032,0.1536424607038498,10.67177399107324,-9.039058182213308,16.96304645024613,21.338369369506836,-5.70352029800415,-11.237448692321777,80.41136932373047,157.0416717529297,-25.902538299560547
2026-04-02 13:02:24.767,1883.773445081,528848575,left_foot,左脚,D4:22:CD:00:84:61,0.9819499254226685,0.10155344754457474,-0.06837230175733566,0.1441769003868103,10.496683594555146,-9.413568488794098,15.839139963098543,21.802875518798828,-0.8464491367340088,-15.765514373779297,-10.570722579956055,-15.038952827453613,-31.127344131469727
2026-04-02 13:02:24.797,1883.803424704,528881909,left_foot,左脚,D4:22:CD:00:84:61,0.9805100560188293,0.07387062907218933,-0.11160752177238464,0.14383235573768616,6.670207213055752,-13.893290661857433,15.87695387695906,3.8511087894439697,2.8542959690093994,11.366087913513184,-114.52057647705078,-130.02252197265625,20.70494270324707
2026-04-02 13:02:24.827,1883.833495708,528915243,left_foot,左脚,D4:22:CD:00:84:61,0.9745875597000122,0.054614584892988205,-0.16839660704135895,0.13725616037845612,3.676422263834007,-20.073586791400594,15.38216527153105,7.454482555389404,-6.1375226974487305,6.065751075744629,-94.08574676513672,-183.56300354003906,2.3438191413879395
2026-04-02 13:02:24.857,1883.863505438,528948577,left_foot,左脚,D4:22:CD:00:84:61,0.9655576348304749,0.051148224622011185,-0.2172851711511612,0.1336788386106491,2.587040738486366,-25.675728766224427,15.175022275745304,17.086801528930664,0.46039289236068726,7.359446048736572,-34.86492156982422,-165.59817504882812,3.2212016582489014
2026-04-02 13:02:24.918,1883.924419149,528981911,left_foot,左脚,D4:22:CD:00:84:61,0.9582635164260864,0.04727565497159958,-0.24728956818580627,0.13544180989265442,1.549315966918721,-29.126736600708064,15.687361040682962,12.094827651977539,-0.02544887363910675,5.092853546142578,-23.90894889831543,-100.05532836914062,17.181745529174805
2026-04-02 13:02:24.947,1883.953460052,529015245,left_foot,左脚,D4:22:CD:00:84:61,0.9524446129798889,0.04443446174263954,-0.26856493949890137,0.13692516088485718,0.7463340171444832,-31.584430444037586,16.150701153783356,8.473515510559082,-1.8734866380691528,5.641604423522949,-16.887521743774414,-70.52355194091797,13.292945861816406
2026-04-02 13:02:24.977,1883.9833834,529048579,left_foot,左脚,D4:22:CD:00:84:61,0.9491661190986633,0.04464742913842201,-0.2799317538738251,0.13685423135757446,0.5554000153477328,-32.9306509780473,16.244990258258383,8.712870597839355,-1.6352126598358154,5.484104633331299,-3.970041513442993,-37.45423889160156,2.642902135848999
2026-04-02 13:02:25.007,1884.013394215,529081913,left_foot,左脚,D4:22:CD:00:84:61,0.947468638420105,0.04747879505157471,-0.2854566276073456,0.13624972105026245,0.8383689729357605,-33.632234147181386,16.11313541644208,7.6007184982299805,-0.20820719003677368,6.117144584655762,6.59917688369751,-18.24070930480957,-3.293381929397583
2026-04-02 13:02:25.038,1884.044238404,529115247,left_foot,左脚,D4:22:CD:00:84:61,0.9455001354217529,0.04757503420114517,-0.2912072241306305,0.1377149075269699,0.6768894439625247,-34.31733742784357,16.365052731144427,7.744144916534424,0.937215268611908,5.873054504394531,-0.37160369753837585,-17.718793869018555,6.3083977699279785
2026-04-02 13:02:25.067,1884.073467823,529148581,left_foot,左脚,D4:22:CD:00:84:61,0.9433191418647766,0.045028217136859894,-0.29729968309402466,0.14048217236995697,0.09941401706528719,-34.997995592489175,16.909500004304284,7.425421237945557,-0.021548010408878326,5.755463123321533,-7.827629089355469,-17.63942527770996,13.384934425354004
2026-04-02 13:02:25.097,1884.103318302,529181915,left_foot,左脚,D4:22:CD:00:84:61,0.9417970776557922,0.04442311078310013,-0.30195361375808716,0.14095920324325562,-0.10218216638222616,-35.54071922930461,17.057346871932477,7.8603410720825195,-0.8101770877838135,5.558533668518066,-3.260096311569214,-13.639384269714355,3.433741569519043
2026-04-02 13:02:25.127,1884.133450179,529215249,left_foot,左脚,D4:22:CD:00:84:61,0.9405901432037354,0.043426670134067535,-0.30554428696632385,0.14159032702445984,-0.34191259481869857,-35.95013940284017,17.232245932263655,7.620619773864746,0.21852357685565948,5.46186637878418,-3.902254819869995,-9.735928535461426,4.030789375305176
2026-04-02 13:02:25.157,1884.163214392,529248583,left_foot,左脚,D4:22:CD:00:84:61,0.9388589859008789,0.040479015558958054,-0.31035518646240234,0.14347700774669647,-0.9297737005226122,-36.468067831760926,17.683818109094698,7.515299320220947,0.24984382092952728,5.689260959625244,-9.447903633117676,-13.333229064941406,10.619783401489258
2026-04-02 13:02:25.217,1884.223366827,529281917,left_foot,左脚,D4:22:CD:00:84:61,0.9374479055404663,0.03871782496571541,-0.31453508138656616,0.14408548176288605,-1.293766680875804,-36.93277023322767,17.907992934254047,7.603289604187012,-1.0818333625793457,5.957125186920166,-6.740200996398926,-12.011791229248047,5.013269424438477
2026-04-02 13:02:25.247,1884.253424606,529315251,left_foot,左脚,D4:22:CD:00:84:61,0.935772716999054,0.039972178637981415,-0.3201768696308136,0.14219467341899872,-1.1753881345350263,-37.63236899752998,17.681002488492247,7.810286521911621,-0.3296879231929779,5.92907190322876,-0.4168810546398163,-19.12442398071289,-5.977436065673828
2026-04-02 13:02:25.277,1884.283396013,529348585,left_foot,左脚,D4:22:CD:00:84:61,0.9313632249832153,0.03908465430140495,-0.3337012827396393,0.14028263092041016,-1.5404495834375675,-39.23920957524017,17.680245032350836,7.142304420471191,0.796893835067749,7.70160436630249,-10.858434677124023,-46.714263916015625,-1.236653208732605
2026-04-02 13:02:25.307,1884.313462901,529381919,left_foot,左脚,D4:22:CD:00:84:61,0.9215050339698792,0.043087176978588104,-0.3596380352973938,0.14011798799037933,-1.6597745249828297,-42.445662417412,17.93617127111656,7.732919692993164,-2.081833600997925,9.57608413696289,1.5182620286941528,-95.13650512695312,3.062892198562622
2026-04-02 13:02:25.337,1884.34353417,529415253,left_foot,左脚,D4:22:CD:00:84:61,0.905324399471283,0.05839411914348602,-0.3982506990432739,0.13555344939231873,-0.18963121061243998,-47.4699435193446,17.114555865672628,8.531778335571289,-1.9864790439605713,9.986008644104004,26.771839141845703,-149.51992797851562,-20.008272171020508
2026-04-02 13:02:25.367,1884.373440867,529448587,left_foot,左脚,D4:22:CD:00:84:61,0.8770030736923218,0.07724049687385559,-0.4566204845905304,0.12805414199829102,1.8590964148660223,-55.15458325328416,15.643450286345857,8.464597702026367,-0.05430919677019119,10.51976203918457,26.993755340576172,-230.26141357421875,-24.40789031982422
2026-04-02 13:02:25.397,1884.403468041,529481921,left_foot,左脚,D4:22:CD:00:84:61,0.8307608962059021,0.09857279062271118,-0.5347561836242676,0.1189810261130333,5.10821640638126,-65.7782996196609,12.996322318207648,9.072043418884277,0.7270539999008179,13.414931297302246,28.049819946289062,-320.1044006347656,-19.91248321533203
2026-04-02 13:02:25.427,1884.433567767,529515255,left_foot,左脚,D4:22:CD:00:84:61,0.7567709684371948,0.12012595683336258,-0.632818341255188,0.11139648407697678,13.487736481884655,-79.91843531335086,5.430827839817645,12.443389892578125,4.338417053222656,17.657958984375,32.68268966674805,-428.7425231933594,2.1159515380859375
2026-04-02 13:02:25.487,1884.49332783,529548589,left_foot,左脚,D4:22:CD:00:84:61,0.6567124724388123,0.1458175778388977,-0.7307764291763306,0.1158989816904068,168.6854177785739,-83.52411484260332,-147.32147853297593,10.35113525390625,-0.9525833129882812,11.78425121307373,80.72814178466797,-482.9419860839844,34.79841232299805
2026-04-02 13:02:25.517,1884.523429215,529581923,left_foot,左脚,D4:22:CD:00:84:61,0.6256113052368164,0.18573270738124847,-0.745882511138916,0.13331817090511322,169.5480995081982,-79.35406728117383,-143.35647986232442,22.35532569885254,12.071649551391602,12.2539701461792,143.5585174560547,-120.65251922607422,-40.914955139160156
2026-04-02 13:02:25.547,1884.553472752,529615257,left_foot,左脚,D4:22:CD:00:84:61,0.6690975427627563,0.14219245314598083,-0.7208406925201416,0.1117112934589386,159.85049313439768,-85.13247407573823,-139.14602924766928,1.3433152437210083,-0.543138861656189,14.030926704406738,-165.33978271484375,169.805908203125,29.89381980895996
2026-04-02 13:02:25.577,1884.583528649,529648591,left_foot,左脚,D4:22:CD:00:84:61,0.7165064811706543,0.14029523730278015,-0.6704780459403992,0.1318928301334381,21.448213535547136,-86.20806268198146,0.7575560197942736,7.259335041046143,-3.152085542678833,6.604214191436768,41.89883041381836,241.96937561035156,8.55212688446045
2026-04-02 13:02:25.607,1884.613337828,529681925,left_foot,左脚,D4:22:CD:00:84:61,0.7804324626922607,0.09940481930971146,-0.5968931913375854,0.15736335515975952,-6.965065862279001,-74.35566183505676,28.08537027825495,5.323427200317383,1.8772951364517212,5.175180435180664,-39.61306381225586,357.95843505859375,92.93595123291016
2026-04-02 13:02:25.637,1884.64346007,529715259,left_foot,左脚,D4:22:CD:00:84:61,0.8343707919120789,0.07662897557020187,-0.5155515074729919,0.17933472990989685,-7.119438319912506,-62.59881850402112,28.592640479325404,4.390819549560547,-3.714808702468872,4.942456245422363,9.409177780151367,347.2957763671875,48.94255447387695
2026-04-02 13:02:25.667,1884.673481511,529748593,left_foot,左脚,D4:22:CD:00:84:61,0.8785452842712402,0.07416883856058121,-0.43042120337486267,0.19337910413742065,-3.344926384618174,-51.71826219870347,26.448785034866187,10.02244758605957,0.6095695495605469,5.85689115524292,58.636695861816406,326.331787109375,-4.966547012329102
2026-04-02 13:02:25.697,1884.70347573,529781927,left_foot,左脚,D4:22:CD:00:84:61,0.9184783697128296,0.07112933695316315,-0.3338709771633148,0.1996728777885437,-0.19934985789532667,-39.91953115760422,24.60238329688595,16.665685653686523,1.251103401184082,7.235667705535889,54.08618927001953,353.46820068359375,-27.599166870117188
2026-04-02 13:02:25.727,1884.73331268,529815261,left_foot,左脚,D4:22:CD:00:84:61,0.951134204864502,0.07238154858350754,-0.221385657787323,0.20271657407283783,3.0775812472915254,-26.774508771519738,23.33039186646984,19.36447525024414,-3.6353952884674072,8.135123252868652,76.70232391357422,392.5230407714844,-41.73567581176758
2026-04-02 13:02:25.757,1884.763486866,529848595,left_foot,左脚,D4:22:CD:00:84:61,0.9683993458747864,0.09141601622104645,-0.10882923007011414,0.20494626462459564,7.85844426116097,-14.374028583732796,22.906362902647295,27.78863525390625,0.37304574251174927,-0.05643725395202637,138.4183349609375,369.20477294921875,-47.37154769897461
2026-04-02 13:02:25.817,1884.82348415,529881929,left_foot,左脚,D4:22:CD:00:84:61,0.9753284454345703,0.0841531902551651,-0.04808022081851959,0.19834740459918976,8.410730593553756,-7.306148761810385,22.45242075255507,30.040138244628906,-3.9795479774475098,-17.76502227783203,13.953591346740723,209.2591094970703,-43.464595794677734
2026-04-02 13:02:25.847,1884.853394797,529915263,left_foot,左脚,D4:22:CD:00:84:61,0.9766622185707092,0.0706450492143631,-0.06841228157281876,0.19094683229923248,6.507758891289415,-9.242313762210236,21.598085434038314,27.85333824157715,-1.8778456449508667,-24.961240768432617,-60.70941162109375,-58.314735412597656,-17.99456024169922
2026-04-02 13:02:25.877,1884.883411819,529948597,left_foot,左脚,D4:22:CD:00:84:61,0.9708510041236877,0.04475554823875427,-0.12100673466920853,0.2019990235567093,2.251972396357434,-14.657472737232581,23.217314165251484,5.986663341522217,-4.409931182861328,13.423751831054688,-117.41519927978516,-155.03713989257812,59.513145446777344
2026-04-02 13:02:25.907,1884.913494927,529981931,left_foot,左脚,D4:22:CD:00:84:61,0.9631600379943848,0.045038819313049316,-0.19539707899093628,0.17920738458633423,1.042017406604913,-23.1126057232304,20.86699857324253,9.579556465148926,-7.257413864135742,7.555236339569092,-58.783512115478516,-252.5849609375,-59.65962600708008
2026-04-02 13:02:25.937,1884.943412516,530015265,left_foot,左脚,D4:22:CD:00:84:61,0.9514203071594238,0.05920052155852318,-0.2501111924648285,0.16952964663505554,1.8377497535335396,-29.735292181743496,19.718607786954102,23.35219383239746,0.966413676738739,4.2745561599731445,8.902619361877441,-196.37744140625,-26.168291091918945
2026-04-02 13:02:25.967,1884.97340083,530048599,left_foot,左脚,D4:22:CD:00:84:61,0.9426134824752808,0.06064026057720184,-0.2817066013813019,0.16865667700767517,1.3255966640270358,-33.472387177269944,19.889926136247137,10.658730506896973,-1.2833532094955444,4.614584922790527,-12.453048706054688,-108.61833190917969,7.215771198272705
2026-04-02 13:02:25.997,1885.003286801,530081933,left_foot,左脚,D4:22:CD:00:84:61,0.9379429817199707,0.06250930577516556,-0.29685139656066895,0.16803473234176636,1.2284992365546112,-35.300611335128536,19.9229496078026,9.269536972045898,-0.22992484271526337,5.107394218444824,-2.1254405975341797,-51.6246223449707,1.7799222469329834
2026-04-02 13:02:26.027,1885.033419232,530115267,left_foot,左脚,D4:22:CD:00:84:61,0.9352803230285645,0.06588543951511383,-0.3049105107784271,0.16715377569198608,1.5155869319233801,-36.32601323465341,19.7686569578924,7.583232402801514,-1.3010897636413574,6.046932697296143,6.119184494018555,-27.867591857910156,-3.2753195762634277
2026-04-02 13:02:26.057,1885.063294851,530148601,left_foot,左脚,D4:22:CD:00:84:61,0.9327462911605835,0.06789150834083557,-0.3117687702178955,0.16785770654678345,1.5813473181909694,-37.185248926299295,19.87160348494294,8.020374298095703,0.9078872799873352,5.809290885925293,4.03711462020874,-22.96988296508789,2.9026038646698
2026-04-02 13:02:26.117,1885.12353289,530181935,left_foot,左脚,D4:22:CD:00:84:61,0.9303449392318726,0.06663481891155243,-0.3179115355014801,0.17015060782432556,1.1473127379140047,-37.89455052125121,20.334657792225382,7.549288272857666,0.3522612750530243,5.205108165740967,-4.382369041442871,-18.453691482543945,11.291876792907715
2026-04-02 13:02:26.147,1885.153584419,530215269,left_foot,左脚,D4:22:CD:00:84:61,0.9270715713500977,0.0648324266076088,-0.3269021213054657,0.1716708540916443,0.5869928666624947,-38.93088590733055,20.77440218613634,7.19709587097168,0.18800993263721466,5.549981117248535,-8.45388412475586,-28.558740615844727,10.613049507141113
2026-04-02 13:02:26.177,1885.183348433,530248603,left_foot,左脚,D4:22:CD:00:84:61,0.923721194267273,0.06068749725818634,-0.33616408705711365,0.17335177958011627,-0.33128198012738136,-39.94737520490518,21.378177002919628,7.952132225036621,-0.2008795440196991,5.14538049697876,-15.894984245300293,-28.28276252746582,13.899799346923828
2026-04-02 13:02:26.207,1885.213362546,530281937,left_foot,左脚,D4:22:CD:00:84:61,0.92210853099823,0.05832809954881668,-0.3406983017921448,0.1738942563533783,-0.8221584243961944,-40.43665097146878,21.662004920971576,8.198765754699707,-1.0858296155929565,5.511223793029785,-9.080782890319824,-12.722020149230957,6.216416358947754
2026-04-02 13:02:26.237,1885.243472904,530315271,left_foot,左脚,D4:22:CD:00:84:61,0.9186441898345947,0.05676804482936859,-0.3503451347351074,0.17357824742794037,-1.326730546975688,-41.559070987475025,21.903289223665666,7.541727542877197,0.9981386661529541,7.080441474914551,-10.238309860229492,-31.919851303100586,4.700937747955322
2026-04-02 13:02:26.267,1885.273455921,530348605,left_foot,左脚,D4:22:CD:00:84:61,0.9096387624740601,0.058044206351041794,-0.37266531586647034,0.17409642040729523,-1.9340087484870447,-44.28209892339844,22.456703773875823,7.970014572143555,-1.8734244108200073,9.744767189025879,-6.798101425170898,-80.38590240478516,9.737442016601562
2026-04-02 13:02:26.298,1885.304309917,530381939,left_foot,左脚,D4:22:CD:00:84:61,0.8927808403968811,0.07050029933452606,-0.4106100797653198,0.17138344049453735,-1.3039876137783044,-49.22974307961693,22.33071939793938,8.65555191040039,-2.5420103073120117,11.283271789550781,16.282928466796875,-146.9539794921875,-6.936858654022217
2026-04-02 13:02:26.387,1885.393438272,530415273,left_foot,左脚,D4:22:CD:00:84:61,0.8598799705505371,0.09260207414627075,-0.47508150339126587,0.16226446628570557,0.5471944507240478,-57.89520305337828,21.070117086323503,7.74239444732666,-1.2138721942901611,13.28444766998291,25.13071060180664,-258.7922058105469,-24.434511184692383
2026-04-02 13:02:26.387,1885.394043109,530448607,left_foot,左脚,D4:22:CD:00:84:61,0.8018012046813965,0.1179405152797699,-0.5669294595718384,0.1476365178823471,3.7747929355911847,-70.72645346144994,18.186702876544633,9.655146598815918,0.22042815387248993,15.682745933532715,18.408849716186523,-385.4500427246094,-23.292064666748047
2026-04-02 13:02:26.417,1885.423292311,530481941,left_foot,左脚,D4:22:CD:00:84:61,0.7104510068893433,0.13525673747062683,-0.6782058477401733,0.13039548695087433,19.40322141871285,-87.35746633001746,2.2566296306506883,14.003116607666016,6.250239372253418,21.883445739746094,-5.288632392883301,-502.46490478515625,10.05260181427002
2026-04-02 13:02:26.447,1885.453491051,530515275,left_foot,左脚,D4:22:CD:00:84:61,0.606201708316803,0.14131639897823334,-0.7733800411224365,0.12013862282037735,-176.48835794646186,-76.3130237422,-162.049065549227,3.8125040531158447,1.5899442434310913,13.747498512268066,-3.297420024871826,-485.71661376953125,52.08888626098633
2026-04-02 13:02:26.477,1885.483456776,530548609,left_foot,左脚,D4:22:CD:00:84:61,0.6220982074737549,0.14877468347549438,-0.7610266208648682,0.10816369950771332,174.22920057436968,-78.25117955366323,-153.18183819217342,30.96531105041504,13.014866828918457,14.426042556762695,-18.863576889038086,57.3809928894043,-57.17511749267578
2026-04-02 13:02:26.507,1885.513333106,530581943,left_foot,左脚,D4:22:CD:00:84:61,0.6741238236427307,0.1001758947968483,-0.7254592180252075,0.0960829108953476,-176.5762187415049,-85.82625097564687,-167.45909121671747,1.4312752485275269,-5.47435998916626,9.5977201461792,-148.9864044189453,221.7626190185547,64.4234619140625
2026-04-02 13:02:26.537,1885.543279216,530615277,left_foot,左脚,D4:22:CD:00:84:61,0.73033607006073,0.08584195375442505,-0.6652913093566895,0.1289529800415039,-24.78653284219196,-83.67377506607885,42.28551701240128,4.865401744842529,3.640087127685547,5.359379291534424,49.261802673339844,293.41204833984375,72.90034484863281
2026-04-02 13:02:26.567,1885.573470208,530648611,left_foot,左脚,D4:22:CD:00:84:61,0.7896889448165894,0.0459945909678936,-0.5909225940704346,0.1583896428346634,-21.065715919210316,-71.41634068442099,37.90740536060794,5.04382848739624,0.3730041980743408,4.0389404296875,-8.333761215209961,346.1124267578125,119.21212768554688
2026-04-02 13:02:26.597,1885.603478904,530681945,left_foot,左脚,D4:22:CD:00:84:61,0.8436440229415894,0.037383779883384705,-0.5067174434661865,0.17350979149341583,-13.123329688046063,-60.22132018818405,30.87633036636372,6.67790412902832,-0.07142220437526703,4.750853061676025,63.75251388549805,340.9624328613281,24.380352020263672
2026-04-02 13:02:26.627,1885.633393338,530715279,left_foot,左脚,D4:22:CD:00:84:61,0.8909990191459656,0.04574965685606003,-0.41331130266189575,0.1822148561477661,-6.029616859262194,-48.8676304887706,25.857403390054525,11.920998573303223,2.3165383338928223,5.771854400634766,88.86263275146484,347.9706726074219,-29.229190826416016
2026-04-02 13:02:26.657,1885.663284469,530748613,left_foot,左脚,D4:22:CD:00:84:61,0.9319801330566406,0.05371659994125366,-0.30749818682670593,0.18431872129440308,-0.9414002027803341,-36.36775251900402,22.68339802807645,15.45659065246582,-0.5693446397781372,8.711371421813965,86.995849609375,376.7452697753906,-46.80767822265625
2026-04-02 13:02:26.717,1885.723642818,530781947,left_foot,左脚,D4:22:CD:00:84:61,0.9622133374214172,0.08186027407646179,-0.18514052033424377,0.1821218729019165,5.6051147663311465,-22.712423163138116,20.309023278951503,27.248184204101562,-2.2741565704345703,4.864392280578613,159.93875122070312,405.82476806640625,-78.38493347167969
2026-04-02 13:02:26.747,1885.753708265,530815281,left_foot,左脚,D4:22:CD:00:84:61,0.9758586287498474,0.08968208730220795,-0.08423376828432083,0.18045097589492798,8.483103917881154,-11.347952345361277,20.108664145910446,31.726545333862305,-2.4885852336883545,-8.743404388427734,84.06881713867188,338.1479797363281,-47.387367248535156
2026-04-02 13:02:26.776,1885.782576163,530848615,left_foot,左脚,D4:22:CD:00:84:61,0.9806733131408691,0.08608025312423706,-0.059583570808172226,0.16529032588005066,8.669581014268099,-8.355830328748766,18.499816637559526,32.4293212890625,-2.4557292461395264,-28.060443878173828,-2.7752678394317627,83.98087310791016,-60.6251220703125
2026-04-02 13:02:26.807,1885.813518118,530881949,left_foot,左脚,D4:22:CD:00:84:61,0.980284571647644,0.03579893335700035,-0.11776205152273178,0.15457449853420258,1.9951334588980496,-14.001524230561559,17.67658915029254,19.577007293701172,-9.18011474609375,-4.82208251953125,-205.0189666748047,-167.07391357421875,-8.60715389251709
2026-04-02 13:02:26.837,1885.843407571,530915283,left_foot,左脚,D4:22:CD:00:84:61,0.9678316116333008,0.028781061992049217,-0.20062218606472015,0.14908067882061005,-0.25639575849970153,-23.385655771698822,17.566612555956183,5.841358184814453,-12.49389362335205,11.034745216369629,-68.11744689941406,-277.51513671875,1.0984708070755005
2026-04-02 13:02:26.867,1885.87350361,530948617,left_foot,左脚,D4:22:CD:00:84:61,0.9525905847549438,0.03545142337679863,-0.26624828577041626,0.14292272925376892,-0.5734322091603669,-31.156971625686587,17.225422167942888,27.562658309936523,2.1353673934936523,2.8788883686065674,-13.53640079498291,-228.98793029785156,-10.959651947021484
2026-04-02 13:02:26.897,1885.903316621,530981951,left_foot,左脚,D4:22:CD:00:84:61,0.9424851536750793,0.033550091087818146,-0.2996821105480194,0.1441790908575058,-1.6225604796814839,-35.06923297133382,17.90778123934214,11.246735572814941,-1.3487212657928467,4.372838973999023,-19.792112350463867,-113.06765747070312,14.818297386169434
2026-04-02 13:02:26.927,1885.933453144,531015285,left_foot,左脚,D4:22:CD:00:84:61,0.9377732872962952,0.03525153547525406,-0.31420814990997314,0.1435714066028595,-1.725860240719165,-36.82934966848753,17.98323507388767,9.090566635131836,-1.8788278102874756,5.355086326599121,-1.2431983947753906,-48.40888214111328,0.1870589256286621
2026-04-02 13:02:26.957,1885.963479721,531048619,left_foot,左脚,D4:22:CD:00:84:61,0.9352679252624512,0.03933374956250191,-0.32160255312919617,0.14247602224349976,-1.309957142699334,-37.79055663408402,17.771757222064828,7.59882116317749,-1.1747608184814453,5.911603927612305,9.148499488830566,-24.57499885559082,-5.941343307495117
2026-04-02 13:02:27.017,1886.023397676,531081953,left_foot,左脚,D4:22:CD:00:84:61,0.9342569708824158,0.04259360581636429,-0.3245980739593506,0.141374409198761,-0.889142345075826,-38.21096220558463,17.517745803973717,7.998309135437012,0.451714426279068,5.522551536560059,8.420430183410645,-8.674531936645508,-6.4005537033081055
2026-04-02 13:02:27.047,1886.053531183,531115287,left_foot,左脚,D4:22:CD:00:84:61,0.932037353515625,0.0420692153275013,-0.33087173104286194,0.14163818955421448,-1.1279220875380676,-38.95326338375897,17.680732967113137,7.241025447845459,0.9234522581100464,5.543743133544922,-3.7051591873168945,-18.755826950073242,3.3216421604156494
2026-04-02 13:02:27.077,1886.083544682,531148621,left_foot,左脚,D4:22:CD:00:84:61,0.9284366369247437,0.03921007737517357,-0.3401630222797394,0.14407649636268616,-1.8862771537564034,-40.01121360294876,18.328624344963423,7.581327438354492,0.41639211773872375,5.526552200317383,-10.026365280151367,-28.77937126159668,14.105070114135742
2026-04-02 13:02:27.107,1886.113429161,531181955,left_foot,左脚,D4:22:CD:00:84:61,0.924900472164154,0.03191697970032692,-0.34867405891418457,0.14821606874465942,-3.3601942774868445,-40.877053662759124,19.461105143943488,7.759729862213135,-0.08301796764135361,5.703510761260986,-21.836341857910156,-23.974071502685547,24.648929595947266
2026-04-02 13:02:27.137,1886.143371958,531215289,left_foot,左脚,D4:22:CD:00:84:61,0.9195719957351685,0.028115618973970413,-0.36184799671173096,0.1505449414253235,-4.443729343615595,-42.37307523175886,20.318196768815014,7.449634552001953,-1.31392240524292,6.724375247955322,-15.06418514251709,-43.10751724243164,16.1556453704834
2026-04-02 13:02:27.167,1886.173557097,531248623,left_foot,左脚,D4:22:CD:00:84:61,0.9089582562446594,0.03113149106502533,-0.38742733001708984,0.15075430274009705,-4.931806574451548,-45.536448389653245,20.904993644571793,8.151610374450684,-2.4092538356781006,8.89620590209961,-2.0432915687561035,-92.92103576660156,4.887208938598633
2026-04-02 13:02:27.197,1886.203600031,531281957,left_foot,左脚,D4:22:CD:00:84:61,0.8916544914245605,0.04290533438324928,-0.4258783161640167,0.147446408867836,-4.4291311767655115,-50.545010237893095,20.87108096527169,8.634757995605469,-2.395386219024658,11.323663711547852,14.711339950561523,-147.33384704589844,-13.020288467407227
2026-04-02 13:02:27.227,1886.233287999,531315291,left_foot,左脚,D4:22:CD:00:84:61,0.8596661686897278,0.06266278028488159,-0.48862338066101074,0.13526248931884766,-2.7196353894941,-58.98770020931543,19.42207287530208,7.738502025604248,-1.8169201612472534,12.339093208312988,28.79799461364746,-249.9981231689453,-31.449562072753906
2026-04-02 13:02:27.257,1886.263612604,531348625,left_foot,左脚,D4:22:CD:00:84:61,0.8038623332977295,0.08926643431186676,-0.5758565068244934,0.11927813291549683,1.0966396007638919,-71.28257021413712,16.093755548676473,9.237077713012695,-1.8234903812408447,14.461777687072754,29.88620948791504,-366.8408203125,-44.3597412109375
2026-04-02 13:02:27.317,1886.323630427,531381959,left_foot,左脚,D4:22:CD:00:84:61,0.7081459164619446,0.10760049521923065,-0.689870297908783,0.10503268241882324,16.64617626127505,-88.50456752010065,0.650221449479774,16.496746063232422,7.372021198272705,22.25686264038086,5.366044521331787,-517.8619995117188,-1.5765272378921509
2026-04-02 13:02:27.347,1886.353364901,531415293,left_foot,左脚,D4:22:CD:00:84:61,0.6105713248252869,0.11508508026599884,-0.7772477269172668,0.09922436624765396,-176.65744915980056,-76.40157270640651,-165.7857984970046,7.772652626037598,4.291639804840088,18.2170467376709,9.232869148254395,-450.9527893066406,36.03510665893555
2026-04-02 13:02:27.377,1886.383615832,531448627,left_foot,左脚,D4:22:CD:00:84:61,0.6237866878509521,0.10630522668361664,-0.77116858959198,0.06992660462856293,173.33502337511752,-77.67571744321687,-158.9343766711943,24.434249877929688,15.480578422546387,20.877721786499023,-99.58008575439453,37.716346740722656,-44.41925811767578
2026-04-02 13:02:27.407,1886.413548782,531481961,left_foot,左脚,D4:22:CD:00:84:61,0.6782317757606506,0.07821270823478699,-0.7284591197967529,0.056861087679862976,162.45453830017306,-85.57659258737701,-151.4848172292652,3.821028232574463,-7.912724494934082,11.986685752868652,-104.23468780517578,235.22007751464844,18.60948944091797
2026-04-02 13:02:27.437,1886.443515728,531515295,left_foot,左脚,D4:22:CD:00:84:61,0.7509050369262695,0.06749223172664642,-0.6490902304649353,0.10133909434080124,-11.512308220427547,-81.29782731698539,25.264975397660333,5.10950231552124,4.60354471206665,6.464232444763184,82.71922302246094,378.7908020019531,95.69950103759766
2026-04-02 13:02:27.467,1886.473458045,531548629,left_foot,左脚,D4:22:CD:00:84:61,0.8149129748344421,0.04495196044445038,-0.557694137096405,0.15124419331550598,-14.317625641546027,-67.30036362272087,30.58678272247134,3.332843065261841,-2.2213022708892822,4.952070236206055,70.16011810302734,396.1342468261719,136.6776580810547
2026-04-02 13:02:27.497,1886.503556405,531581963,left_foot,左脚,D4:22:CD:00:84:61,0.8647724986076355,0.054363369941711426,-0.4670262634754181,0.17635440826416016,-7.222829952193221,-55.78326210777009,26.87932057142168,8.420878410339355,-0.7917320728302002,6.104614734649658,113.80162048339844,346.33709716796875,13.0231351852417
2026-04-02 13:02:27.527,1886.533498528,531615297,left_foot,左脚,D4:22:CD:00:84:61,0.9119112491607666,0.06986939907073975,-0.36334794759750366,0.1775265485048294,-0.1245360249064642,-43.43164009780446,22.082163948109486,15.294519424438477,1.81405770778656,8.70035457611084,101.87681579589844,372.97003173828125,-68.84246826171875
2026-04-02 13:02:27.557,1886.563470328,531648631,left_foot,左脚,D4:22:CD:00:84:61,0.949444591999054,0.0834861770272255,-0.2455175817012787,0.17693883180618286,4.732248976978549,-29.719480577693055,19.856868099183906,24.121074676513672,-3.120939254760742,8.474122047424316,104.73714447021484,406.8772277832031,-69.55096435546875
2026-04-02 13:02:27.617,1886.623614269,531681965,left_foot,左脚,D4:22:CD:00:84:61,0.9704597592353821,0.10433201491832733,-0.1292394995689392,0.1749884933233261,9.450423522937442,-16.699786181201514,19.052755458836888,32.26199722290039,-2.6181280612945557,-3.0658957958221436,131.21890258789062,384.3276062011719,-69.84749603271484
2026-04-02 13:02:27.647,1886.653623121,531715299,left_foot,左脚,D4:22:CD:00:84:61,0.978935956954956,0.10373550653457642,-0.0674666166305542,0.1623978614807129,10.587105104894459,-9.54275831287118,17.952083553467446,35.50091552734375,-4.5604963302612305,-24.548702239990234,26.508638381958008,207.38427734375,-69.05142211914062
2026-04-02 13:02:27.677,1886.683586563,531748633,left_foot,左脚,D4:22:CD:00:84:61,0.9802797436714172,0.057169359177351,-0.11363743245601654,0.15123212337493896,4.591668583426663,-13.89151666662383,16.98059716880876,27.67186164855957,-5.322385787963867,-28.074214935302734,-185.80471801757812,-129.32472229003906,-11.3102388381958
2026-04-02 13:02:27.707,1886.713451037,531781967,left_foot,左脚,D4:22:CD:00:84:61,0.9715676307678223,0.024617651477456093,-0.1865920126438141,0.14364869892597198,-0.35592025524110776,-21.69376565690735,16.88898246517073,3.7614922523498535,-12.906002044677734,15.868267059326172,-148.90643310546875,-229.07174682617188,6.053977012634277
2026-04-02 13:02:27.737,1886.743395619,531815301,left_foot,左脚,D4:22:CD:00:84:61,0.9534925222396851,0.02700544334948063,-0.26841747760772705,0.13444675505161285,-1.3862290736514034,-31.27385161093574,16.44012464336728,32.243560791015625,-4.118853569030762,4.286504745483398,-36.10491943359375,-282.51422119140625,-16.46161460876465
2026-04-02 13:02:27.767,1886.773563007,531848635,left_foot,左脚,D4:22:CD:00:84:61,0.9409247040748596,0.02645057812333107,-0.3091793954372406,0.135537788271904,-2.41375125151496,-36.08596302806739,17.180233296026024,12.382524490356445,-0.8971214294433594,4.007273197174072,-17.761070251464844,-139.29576110839844,13.678009033203125
2026-04-02 13:02:27.797,1886.803560253,531881969,left_foot,左脚,D4:22:CD:00:84:61,0.9342846870422363,0.028149185702204704,-0.32848310470581055,0.1357191801071167,-2.6749488420560725,-38.42089600686703,17.462764110926575,9.905122756958008,-1.5539146661758423,4.509639263153076,-1.9435495138168335,-64.81763458251953,3.5990705490112305
2026-04-02 13:02:27.830,1886.836444438,531915303,left_foot,左脚,D4:22:CD:00:84:61,0.9297464489936829,0.030371297150850296,-0.34068095684051514,0.13633395731449127,-2.7218304386874594,-39.924247669378694,17.6730911392746,7.955491542816162,-0.7165982723236084,5.903994560241699,3.307274580001831,-40.16209030151367,2.7203075885772705
2026-04-02 13:02:27.857,1886.863617613,531948637,left_foot,左脚,D4:22:CD:00:84:61,0.927110493183136,0.033443883061409,-0.3475426435470581,0.13624624907970428,-2.4753712258220695,-40.80852487834706,17.641371860188837,8.076297760009766,-0.18798720836639404,5.651663780212402,7.47544002532959,-21.72024154663086,-1.9920300245285034
2026-04-02 13:02:27.917,1886.923322022,531981971,left_foot,左脚,D4:22:CD:00:84:61,0.9259580969810486,0.03246375173330307,-0.3502848744392395,0.13729406893253326,-2.7438477130259704,-41.1179611110049,17.89714728760099,8.091797828674316,0.260560005903244,5.071005821228027,-2.39292573928833,-5.107611656188965,5.33341646194458
2026-04-02 13:02:27.947,1886.953448743,532015305,left_foot,左脚,D4:22:CD:00:84:61,0.9250935912132263,0.030264759436249733,-0.3525025248527527,0.13794603943824768,-3.1500966440199685,-41.3414230870758,18.151161612923147,7.1867499351501465,-0.4161025881767273,6.045088291168213,-6.573288917541504,-2.8302063941955566,5.384727478027344
2026-04-02 13:02:27.977,1886.983547963,532048639,left_foot,左脚,D4:22:CD:00:84:61,0.9223877191543579,0.027744267135858536,-0.3594580590724945,0.138644278049469,-3.748980937499019,-42.12974887062433,18.540703524089007,7.610283374786377,-0.3917597234249115,5.708946228027344,-9.618431091308594,-20.265214920043945,7.315130233764648
2026-04-02 13:02:28.007,1887.013500664,532081973,left_foot,左脚,D4:22:CD:00:84:61,0.9154002070426941,0.025091124698519707,-0.3761579990386963,0.14113552868366241,-4.810990694089029,-44.087163988269424,19.47856902206929,7.097356796264648,0.4072280824184418,7.429074287414551,-12.092586517333984,-56.4791374206543,16.177946090698242
2026-04-02 13:02:28.037,1887.043941739,532115307,left_foot,左脚,D4:22:CD:00:84:61,0.9029591679573059,0.027854949235916138,-0.404417484998703,0.1426062285900116,-5.533672072405327,-47.58583790016723,20.3907816070981,8.33979320526123,-3.0501248836517334,8.936806678771973,-1.5187101364135742,-102.95533752441406,9.607246398925781
2026-04-02 13:02:28.067,1887.073555929,532148641,left_foot,左脚,D4:22:CD:00:84:61,0.8827359080314636,0.03996795043349266,-0.4468887448310852,0.13954058289527893,-5.179970437179206,-53.141829538218204,20.557645111209066,8.498473167419434,-1.9803380966186523,11.720511436462402,15.013604164123535,-163.2924346923828,-12.422094345092773
2026-04-02 13:02:28.097,1887.103534587,532181975,left_foot,左脚,D4:22:CD:00:84:61,0.8448536992073059,0.05933653563261032,-0.5145990252494812,0.13375580310821533,-4.6148351396525165,-62.300018996535464,20.782906990364808,8.756436347961426,-0.8922795057296753,13.135165214538574,23.129547119140625,-271.60443115234375,-19.990346908569336
2026-04-02 13:02:28.127,1887.133552899,532215309,left_foot,左脚,D4:22:CD:00:84:61,0.779366135597229,0.08185570687055588,-0.6084413528442383,0.1252536028623581,-5.758500067909822,-75.67349842934223,22.734276770256884,8.789580345153809,1.2702062129974365,17.589292526245117,21.00452423095703,-399.63287353515625,-15.506802558898926
2026-04-02 13:02:28.157,1887.163318603,532248643,left_foot,左脚,D4:22:CD:00:84:61,0.6698322296142578,0.09517104178667068,-0.726812481880188,0.1183733344078064,-149.15081052290878,-85.01330465154737,166.53699715422314,17.961105346679688,4.775810241699219,24.432695388793945,1.380157470703125,-555.736572265625,34.32231903076172
2026-04-02 13:02:28.217,1887.223555629,532281977,left_foot,左脚,D4:22:CD:00:84:61,0.5916299223899841,0.1069541871547699,-0.7901893258094788,0.1188998594880104,-167.274403059252,-73.82833165798601,-174.16012721059133,21.082500457763672,6.605316638946533,15.498886108398438,28.475055694580078,-347.3388671875,24.728923797607422
2026-04-02 13:02:28.247,1887.253548693,532315311,left_foot,左脚,D4:22:CD:00:84:61,0.6228275299072266,0.06284987926483154,-0.7734383344650269,0.09965015947818756,-159.6310393855803,-77.41192813594719,172.90769188733074,6.945350646972656,8.587935447692871,21.70897102355957,-146.48916625976562,127.80284118652344,62.639739990234375
2026-04-02 13:02:28.277,1887.283459265,532348645,left_foot,左脚,D4:22:CD:00:84:61,0.6710999011993408,0.0545068234205246,-0.7270001769065857,0.13463252782821655,-117.19745375351222,-82.07734621488136,132.6062114192345,1.277897596359253,-6.038608074188232,11.715886116027832,80.64679718017578,235.41392517089844,71.3482666015625
2026-04-02 13:02:28.307,1887.313539751,532381979,left_foot,左脚,D4:22:CD:00:84:61,0.7416000366210938,0.044018834829330444,-0.6477067470550537,0.1690240055322647,-44.37113534166414,-77.30606029943097,61.807322550217926,5.784873962402344,2.688692808151245,7.6990509033203125,85.0782241821289,367.906982421875,58.93313980102539
2026-04-02 13:02:28.337,1887.343561116,532415313,left_foot,左脚,D4:22:CD:00:84:61,0.8140224814414978,0.041057609021663666,-0.5506348013877869,0.18023358285427094,-18.641461045534225,-65.6796529472835,37.063139090028876,5.332159996032715,-3.0983259677886963,6.531303405761719,62.48741912841797,409.8922119140625,-20.901880264282227
2026-04-02 13:02:28.367,1887.373538733,532448647,left_foot,左脚,D4:22:CD:00:84:61,0.8738604187965393,0.05332402139902115,-0.4451213479042053,0.18813030421733856,-7.080681732644766,-52.94052545834889,27.82822078555822,13.918974876403809,-1.9221888780593872,7.300326347351074,105.99286651611328,399.9146728515625,-52.61500549316406
2026-04-02 13:02:28.397,1887.40339715,532481981,left_foot,左脚,D4:22:CD:00:84:61,0.9258922338485718,0.06155288591980934,-0.3194926381111145,0.19199073314666748,-0.6320868796107662,-37.97124722633708,23.646859843753777,19.832916259765625,-0.48758941888809204,10.535279273986816,102.23394775390625,451.178955078125,-57.23065948486328
2026-04-02 13:02:28.427,1887.43358426,532515315,left_foot,左脚,D4:22:CD:00:84:61,0.9611009359359741,0.07742339372634888,-0.18932805955410004,0.18559975922107697,4.899275871821153,-23.120461559010284,20.857159828859068,29.521358489990234,-3.718139410018921,3.2217423915863037,122.03641510009766,440.82733154296875,-88.28460693359375
2026-04-02 13:02:28.457,1887.463399525,532548649,left_foot,左脚,D4:22:CD:00:84:61,0.9773578643798828,0.08619832247495651,-0.09508468210697174,0.1682310849428177,8.034250540867001,-12.40764894274849,18.658299120438816,36.15506362915039,-4.664017677307129,-15.18437671661377,73.53207397460938,312.52703857421875,-98.45256042480469
2026-04-02 13:02:28.517,1887.523504181,532581983,left_foot,左脚,D4:22:CD:00:84:61,0.9809649586677551,0.06652688980102539,-0.09121911972761154,0.15799425542354584,5.957662923129105,-11.536199702603126,17.696630232374584,33.2877197265625,-3.007814407348633,-33.850677490234375,-68.23066711425781,25.40908432006836,-31.32268524169922
2026-04-02 13:02:28.547,1887.553403951,532615317,left_foot,左脚,D4:22:CD:00:84:61,0.974465548992157,0.02710072323679924,-0.1550590544939041,0.16012641787528992,0.1904539956067714,-18.112155726475866,18.63280513325211,15.22420883178711,-10.042862892150879,1.3283319473266602,-165.46998596191406,-190.619384765625,37.62371826171875
2026-04-02 13:02:28.577,1887.583482889,532648651,left_foot,左脚,D4:22:CD:00:84:61,0.9562103152275085,0.024030394852161407,-0.25203004479408264,0.14685526490211487,-1.843987258553077,-29.277820415865275,17.944285196281335,17.056610107421875,-8.879225730895996,10.57321834564209,-68.42540740966797,-329.6844177246094,-23.794757843017578
2026-04-02 13:02:28.609,1887.61531188,532681985,left_foot,左脚,D4:22:CD:00:84:61,0.9399793148040771,0.030309725552797318,-0.3088102638721466,0.14197804033756256,-2.1779596154511944,-36.09716413214872,17.8882716761662,21.718557357788086,-1.1599717140197754,1.921834945678711,-9.986837387084961,-198.53053283691406,-8.724937438964844
2026-04-02 13:02:28.637,1887.643518455,532715319,left_foot,左脚,D4:22:CD:00:84:61,0.9309857487678528,0.034827593713998795,-0.33538156747817993,0.13990357518196106,-2.1491523732636937,-39.36179773483458,17.861090449726664,11.755467414855957,-0.9367164969444275,3.3379576206207275,1.224691390991211,-91.53913879394531,-4.493447780609131
2026-04-02 13:02:28.667,1887.67357397,532748653,left_foot,左脚,D4:22:CD:00:84:61,0.9261718392372131,0.03700244054198265,-0.3485570251941681,0.1390891969203949,-2.1577754679221477,-40.99095318092886,17.887952263380264,8.126626968383789,-0.7928669452667236,5.875664710998535,1.0529426336288452,-42.65501022338867,-1.3706156015396118
2026-04-02 13:02:28.697,1887.703524378,532781987,left_foot,左脚,D4:22:CD:00:84:61,0.923460841178894,0.041896525770425797,-0.35563772916793823,0.13779689371585846,-1.589462737351125,-41.94219409248006,17.583123140649978,8.079411506652832,-1.4578837156295776,5.652252197265625,11.771824836730957,-22.376018524169922,-7.980944633483887
2026-04-02 13:02:28.757,1887.763503847,532815321,left_foot,左脚,D4:22:CD:00:84:61,0.9213575124740601,0.04458564519882202,-0.3610038459300995,0.1370767503976822,-1.3096381424760144,-42.64466596685821,17.435651860832127,7.67626428604126,0.8805795907974243,5.90601110458374,6.154600143432617,-15.322020530700684,-4.028944969177246
2026-04-02 13:02:28.758,1887.764554891,532848655,left_foot,左脚,D4:22:CD:00:84:61,0.9146462082862854,0.0459054671227932,-0.37761422991752625,0.1368345320224762,-1.5611587751003801,-44.69469713813607,17.658943020165648,7.259687423706055,0.7821856737136841,5.523512363433838,-2.2700014114379883,-56.206790924072266,3.130091667175293
2026-04-02 13:02:28.817,1887.82357862,532881989,left_foot,左脚,D4:22:CD:00:84:61,0.9060444235801697,0.043667472898960114,-0.39743366837501526,0.13865192234516144,-2.615901101248297,-47.07900242609997,18.540676173174006,8.31980037689209,0.032496314495801926,4.915839672088623,-12.053690910339355,-67.00274658203125,15.690986633300781
2026-04-02 13:02:28.847,1887.853221683,532915323,left_foot,左脚,D4:22:CD:00:84:61,0.8999900221824646,0.040248457342386246,-0.410365492105484,0.14141957461833954,-3.781536538100514,-48.59319776009178,19.56790965251739,8.107354164123535,-0.06773670762777328,5.090203762054443,-11.51939582824707,-41.511993408203125,18.052337646484375
2026-04-02 13:02:28.877,1887.883511814,532948657,left_foot,左脚,D4:22:CD:00:84:61,0.8945801854133606,0.0361444354057312,-0.4212914705276489,0.1446886956691742,-5.092033763802894,-49.8373189306387,20.741706398547823,8.450139045715332,-1.0380076169967651,6.537464618682861,-12.04236888885498,-34.189369201660156,20.031139373779297
2026-04-02 13:02:28.907,1887.913411551,532981991,left_foot,左脚,D4:22:CD:00:84:61,0.8850386738777161,0.040722232311964035,-0.4411768317222595,0.1428726613521576,-5.078732630276055,-52.42466557771882,20.84204858245994,8.837804794311523,-3.422729253768921,8.598902702331543,3.3936924934387207,-72.94126892089844,-5.077179431915283
2026-04-02 13:02:28.938,1887.944404398,533015325,left_foot,左脚,D4:22:CD:00:84:61,0.8661691546440125,0.05584288761019707,-0.47766703367233276,0.13589686155319214,-3.523083037534297,-57.42183417362077,19.763494594465023,8.943463325500488,-2.8087658882141113,10.274260520935059,20.81124496459961,-143.92649841308594,-30.038776397705078
2026-04-02 13:02:28.967,1887.97335877,533048659,left_foot,左脚,D4:22:CD:00:84:61,0.8275929689407349,0.08026514947414398,-0.5413086414337158,0.12503409385681152,-0.3585990733562147,-66.3534445388103,17.41718315952918,7.997374534606934,0.04719243198633194,13.752525329589844,33.16390609741211,-262.97296142578125,-42.6798210144043
2026-04-02 13:02:28.997,1888.003364535,533081993,left_foot,左脚,D4:22:CD:00:84:61,0.750389814376831,0.11266441643238068,-0.6411774158477783,0.11451929062604904,8.299139279569552,-81.1405928486296,10.245186563609698,13.309293746948242,1.4583860635757446,16.829408645629883,51.50505828857422,-443.1650085449219,-30.006216049194336
2026-04-02 13:02:29.027,1888.033554243,533115327,left_foot,左脚,D4:22:CD:00:84:61,0.6507271528244019,0.12580959498882294,-0.7410578727722168,0.10752066224813461,178.07128622190228,-82.52683572205342,-159.0372234636995,18.485759735107422,6.89415979385376,20.368919372558594,18.049602508544922,-485.3866882324219,30.772703170776367
2026-04-02 13:02:29.057,1888.063549508,533148661,left_foot,左脚,D4:22:CD:00:84:61,0.6113165616989136,0.13273632526397705,-0.7725790739059448,0.10860957950353622,-178.6163361039816,-76.75827175730441,-161.59833305815073,19.87091064453125,9.788898468017578,16.067028045654297,23.913516998291016,-173.04725646972656,13.180192947387695
2026-04-02 13:02:29.117,1888.12346091,533181995,left_foot,左脚,D4:22:CD:00:84:61,0.6348354816436768,0.11582113802433014,-0.7562841773033142,0.10772562026977539,-174.68444523546333,-80.12514832232107,-167.05729313064163,-4.845929145812988,1.6718175411224365,19.491727828979492,-42.18390655517578,100.99525451660156,27.783260345458984
2026-04-02 13:02:29.147,1888.153529521,533215329,left_foot,左脚,D4:22:CD:00:84:61,0.6827425956726074,0.12652570009231567,-0.7049173712730408,0.1447296291589737,-129.55589055900145,-87.67515285047637,151.6769395816844,0.7415285706520081,1.645540714263916,10.573261260986328,119.8683853149414,244.97244262695312,15.65733814239502
2026-04-02 13:02:29.177,1888.1834257,533248663,left_foot,左脚,D4:22:CD:00:84:61,0.7448745369911194,0.12123637646436691,-0.6331406235694885,0.1720399111509323,-12.43577272890992,-80.04192415254767,36.46521897568622,6.91346549987793,-2.5158979892730713,6.12226676940918,62.574493408203125,330.908447265625,15.956718444824219
2026-04-02 13:02:29.207,1888.21362877,533281997,left_foot,左脚,D4:22:CD:00:84:61,0.8132990002632141,0.11328867077827454,-0.5424951314926147,0.1772303730249405,-1.1908243077875322,-67.30575002767601,25.37967015678589,11.429628372192383,-1.9211664199829102,5.868996620178223,15.977588653564453,385.51519775390625,-46.813316345214844
2026-04-02 13:02:29.237,1888.243612947,533315331,left_foot,左脚,D4:22:CD:00:84:61,0.869097888469696,0.10936089605093002,-0.44576942920684814,0.18439146876335144,2.5428491566848357,-54.603552769817576,22.644259899092365,12.930851936340332,-3.0995774269104004,6.197389602661133,39.59614562988281,377.467041015625,-43.67729187011719
2026-04-02 13:02:29.267,1888.273687276,533348665,left_foot,左脚,D4:22:CD:00:84:61,0.911488950252533,0.11554578691720963,-0.34521588683128357,0.19147920608520508,6.091554019654866,-42.343149163715644,21.366395923606763,16.95145034790039,-4.624534606933594,7.571247100830078,77.40593719482422,362.3111877441406,-52.546993255615234
2026-04-02 13:02:29.297,1888.303341685,533381999,left_foot,左脚,D4:22:CD:00:84:61,0.9452460408210754,0.1106337308883667,-0.2345096915960312,0.19818314909934998,7.646421667644654,-29.156027956095343,21.691205777692364,24.57219696044922,-0.26694393157958984,5.481342792510986,52.4957275390625,392.1108093261719,-39.11204528808594
2026-04-02 13:02:29.327,1888.333667924,533415333,left_foot,左脚,D4:22:CD:00:84:61,0.964422881603241,0.09551989287137985,-0.13888302445411682,0.20365896821022034,7.709020291409339,-17.865922436350896,22.634610306599814,27.026859283447266,-2.8764119148254395,-6.998315811157227,13.583928108215332,339.23211669921875,-19.36054039001465
2026-04-02 13:02:29.357,1888.36374438,533448667,left_foot,左脚,D4:22:CD:00:84:61,0.9739778637886047,0.09280601888895035,-0.10203254967927933,0.1798459142446518,8.518454785391162,-13.422872466006325,19.91951955868128,29.64128875732422,-3.575050115585327,-24.78412628173828,2.8337159156799316,123.20658874511719,-96.6842269897461
2026-04-02 13:02:29.417,1888.423359144,533482001,left_foot,左脚,D4:22:CD:00:84:61,0.972770631313324,0.06427637487649918,-0.14609000086784363,0.1680615246295929,4.5753508841858395,-17.808018634174978,18.886806906916267,20.50811004638672,0.4190100431442261,-15.365320205688477,-126.31380462646484,-129.40464782714844,-15.017997741699219
2026-04-02 13:02:29.447,1888.453631946,533515335,left_foot,左脚,D4:22:CD:00:84:61,0.9615113139152527,0.045085132122039795,-0.2214474231004715,0.15628720819950104,1.1153845273875826,-26.10007082071635,18.206064315593398,3.753933906555176,-5.421771049499512,16.091960906982422,-111.05944061279297,-243.8977813720703,-6.707731246948242
2026-04-02 13:02:29.477,1888.483687038,533548669,left_foot,左脚,D4:22:CD:00:84:61,0.9435816407203674,0.04994514212012291,-0.2932261824607849,0.1455305814743042,0.6200895064127802,-34.604046809580915,17.342363934346334,30.25284767150879,-2.2713632583618164,3.8177342414855957,-27.36137580871582,-249.99591064453125,-18.665739059448242
2026-04-02 13:02:29.507,1888.513627055,533582003,left_foot,左脚,D4:22:CD:00:84:61,0.9299750924110413,0.051668159663677216,-0.3339029550552368,0.14486825466156006,-0.047791549113007994,-39.49509869061307,17.72550386204436,11.663089752197266,-0.33944323658943176,4.15103006362915,-12.571063041687012,-140.30328369140625,9.771318435668945
2026-04-02 13:02:29.537,1888.543385119,533615337,left_foot,左脚,D4:22:CD:00:84:61,0.9219526648521423,0.05157281458377838,-0.35571521520614624,0.14426180720329285,-0.5822628617570813,-42.12762745364173,18.010652565094315,9.802741050720215,-0.955235481262207,4.3536481857299805,-9.890317916870117,-72.66321563720703,5.909086227416992
2026-04-02 13:02:29.567,1888.573675243,533648671,left_foot,左脚,D4:22:CD:00:84:61,0.9180541634559631,0.05275360494852066,-0.3658571243286133,0.1433299481868744,-0.6318973217403777,-43.383225576695125,17.99853965142343,8.59196949005127,-1.515945553779602,5.566922664642334,-1.163588523864746,-31.538013458251953,-0.8121389150619507
2026-04-02 13:02:29.597,1888.603586915,533682005,left_foot,左脚,D4:22:CD:00:84:61,0.9167935252189636,0.05477362126111984,-0.36925187706947327,0.14192841947078705,-0.3481095379646474,-43.83647685418187,17.74022486824027,8.221641540527344,-0.1709764450788498,5.656982421875,3.7555992603302,-7.706783294677734,-5.909671783447266
2026-04-02 13:02:29.627,1888.633618986,533715339,left_foot,左脚,D4:22:CD:00:84:61,0.9160857200622559,0.0548589788377285,-0.37136930227279663,0.14093846082687378,-0.33263886604817244,-44.096965430866504,17.627315566466173,7.806084156036377,0.28731346130371094,5.564227104187012,-1.346235990524292,-2.249243974685669,-2.6428534984588623
2026-04-02 13:02:29.657,1888.663459257,533748673,left_foot,左脚,D4:22:CD:00:84:61,0.9160267114639282,0.053546756505966187,-0.37188196182250977,0.14047369360923767,-0.5092360613328805,-44.134938647107546,17.643345552655717,7.700503349304199,-0.03169235214591026,5.217711925506592,-4.466056823730469,4.113513946533203,0.22380708158016205
2026-04-02 13:02:29.717,1888.723699411,533782007,left_foot,左脚,D4:22:CD:00:84:61,0.9158737063407898,0.05169238522648811,-0.37264782190322876,0.14013588428497314,-0.7795822314252706,-44.193498898701236,17.71498150564979,7.613893508911133,0.04129170626401901,5.501091480255127,-6.134034156799316,3.2009267807006836,1.4397324323654175
2026-04-02 13:02:29.747,1888.753613322,533815341,left_foot,左脚,D4:22:CD:00:84:61,0.9139728546142578,0.048211533576250076,-0.37733978033065796,0.1412278264760971,-1.4876267911062313,-44.6982756237679,18.17947902927292,7.3818559646606445,0.7689561247825623,5.950916767120361,-11.029479026794434,-10.649636268615723,9.61643123626709
2026-04-02 13:02:29.777,1888.783570495,533848675,left_foot,左脚,D4:22:CD:00:84:61,0.9105665683746338,0.04544369876384735,-0.38519716262817383,0.14292553067207336,-2.2403116899203113,-45.60097724113446,18.782961020038627,7.665383815765381,-0.8475598096847534,5.7944440841674805,-9.314361572265625,-23.080015182495117,11.90672779083252
2026-04-02 13:02:29.807,1888.813648984,533882009,left_foot,左脚,D4:22:CD:00:84:61,0.9061036705970764,0.04523197188973427,-0.39512085914611816,0.1442604809999466,-2.6824352580510467,-46.81018420372127,19.253489037341794,7.792036056518555,-0.1763835847377777,5.859766483306885,-2.6150856018066406,-32.508209228515625,8.218539237976074
2026-04-02 13:02:29.837,1888.843690196,533915343,left_foot,左脚,D4:22:CD:00:84:61,0.899476170539856,0.044371578842401505,-0.4091249704360962,0.14694128930568695,-3.497038023944196,-48.50689512358144,20.132071749390683,7.7077860832214355,0.17822706699371338,6.6082763671875,-4.51226806640625,-47.87080383300781,15.029728889465332
2026-04-02 13:02:29.867,1888.873354828,533948677,left_foot,左脚,D4:22:CD:00:84:61,0.8897383213043213,0.04583106189966202,-0.4290746748447418,0.148868128657341,-4.209845228031164,-51.00243589934602,21.00591916175768,8.142928123474121,-1.4730063676834106,7.290124416351318,-0.9309126138687134,-72.1949691772461,11.920605659484863
2026-04-02 13:02:29.897,1888.903535507,533982011,left_foot,左脚,D4:22:CD:00:84:61,0.8762966394424438,0.05253025144338608,-0.45562174916267395,0.14749477803707123,-4.180163828108095,-54.49004228464427,21.26165894638332,8.507505416870117,-2.3526101112365723,7.010087013244629,7.461283206939697,-101.32453155517578,-3.030782699584961
2026-04-02 13:02:29.927,1888.933724695,534015345,left_foot,左脚,D4:22:CD:00:84:61,0.8586743474006653,0.06563661992549896,-0.48809054493904114,0.14191189408302307,-2.869590930412365,-58.96470805029719,20.391331446309724,8.68436050415039,-1.9069125652313232,6.331686019897461,17.942951202392578,-129.98565673828125,-22.67825698852539
2026-04-02 13:02:29.957,1888.963586357,534048679,left_foot,左脚,D4:22:CD:00:84:61,0.8331890106201172,0.08241697400808334,-0.5302772521972656,0.13345664739608765,-0.5675253642404873,-64.90955446585782,18.561112276869967,8.865572929382324,0.03166241571307182,8.054815292358398,20.970035552978516,-174.61001586914062,-31.38730812072754
2026-04-02 13:02:30.017,1889.023671462,534082013,left_foot,左脚,D4:22:CD:00:84:61,0.7954893708229065,0.09404304623603821,-0.5851528644561768,0.12629318237304688,0.3502837114971314,-72.69185975434628,17.78441970010586,9.711034774780273,2.465707778930664,8.928797721862793,6.100738525390625,-230.98382568359375,-9.032751083374023
2026-04-02 13:02:30.047,1889.053596937,534115347,left_foot,左脚,D4:22:CD:00:84:61,0.7354738116264343,0.09887643158435822,-0.659303605556488,0.12092085927724838,-7.185615178995654,-83.57139872032484,25.096340419933124,11.174275398254395,4.4023919105529785,13.406607627868652,-10.120452880859375,-325.905517578125,25.648853302001953
2026-04-02 13:02:30.077,1889.083614192,534148681,left_foot,左脚,D4:22:CD:00:84:61,0.6543378829956055,0.10408756881952286,-0.7393901944160461,0.11962935328483582,-160.5253236443858,-82.98985957264728,178.76362763768324,13.091632843017578,0.35710209608078003,9.000472068786621,4.792316913604736,-388.72467041015625,46.231101989746094
2026-04-02 13:02:30.107,1889.113311648,534182015,left_foot,左脚,D4:22:CD:00:84:61,0.5976864695549011,0.13374456763267517,-0.7795321941375732,0.13120311498641968,-169.91125014811104,-75.2229702074818,-168.30983739904227,16.965986251831055,0.8544121980667114,5.221452236175537,100.23866271972656,-242.01455688476562,-11.455248832702637
2026-04-02 13:02:30.137,1889.143519565,534215349,left_foot,左脚,D4:22:CD:00:84:61,0.6095713973045349,0.1304028481245041,-0.771943211555481,0.12459138035774231,-171.59208630366254,-76.80571149162517,-167.49247693700372,6.519222259521484,7.032928943634033,11.013086318969727,-26.313629150390625,45.813575744628906,-12.911393165588379
2026-04-02 13:02:30.167,1889.173601755,534248683,left_foot,左脚,D4:22:CD:00:84:61,0.6274870038032532,0.1371978521347046,-0.753355085849762,0.14104712009429932,-166.85558223178353,-79.7828088309501,-170.35890234636537,3.0459177494049072,-4.92995023727417,6.6892876625061035,58.14037322998047,90.2298583984375,1.1352591514587402
2026-04-02 13:02:30.197,1889.203457391,534282017,left_foot,左脚,D4:22:CD:00:84:61,0.663783848285675,0.13620027899742126,-0.7163292169570923,0.16647647321224213,-137.67995118295548,-85.08462670991425,162.41968860926085,6.155292510986328,1.8343185186386108,5.363827705383301,64.7769775390625,185.37217712402344,22.986719131469727
2026-04-02 13:02:30.228,1889.234130888,534315351,left_foot,左脚,D4:22:CD:00:84:61,0.7180659770965576,0.12721967697143555,-0.6607990264892578,0.1776021122932434,-28.875011646075535,-83.81654826106113,53.806466096211594,6.037319660186768,-3.0825741291046143,4.364249229431152,13.394771575927734,269.7088623046875,-8.940932273864746
2026-04-02 13:02:30.257,1889.26354622,534348685,left_foot,左脚,D4:22:CD:00:84:61,0.7729581594467163,0.1197587102651596,-0.5947283506393433,0.18572242558002472,-7.719054796167648,-74.55423054601552,32.90045965155945,5.7584075927734375,-2.7729921340942383,4.870081424713135,16.469636917114258,294.82037353515625,-25.010778427124023
2026-04-02 13:02:30.317,1889.323531586,534382019,left_foot,左脚,D4:22:CD:00:84:61,0.8211713433265686,0.1143617033958435,-0.5207913517951965,0.20341254770755768,-3.1908719690317193,-64.40124731230068,29.835162452021233,10.031245231628418,-1.8960977792739868,4.730334758758545,49.36570358276367,304.6765441894531,-2.8931264877319336
2026-04-02 13:02:30.347,1889.353281692,534415353,left_foot,左脚,D4:22:CD:00:84:61,0.86565762758255,0.1034957766532898,-0.43854326009750366,0.2181897759437561,-1.175532811357439,-53.554171770120846,28.886800218625766,12.073281288146973,0.6643358469009399,6.134854793548584,35.97383499145508,324.3490295410156,-1.9979660511016846
2026-04-02 13:02:30.377,1889.383541097,534448687,left_foot,左脚,D4:22:CD:00:84:61,0.9070386290550232,0.09449055790901184,-0.35142382979393005,0.2117900550365448,1.757495085924064,-42.6511962741998,25.599572294798914,16.732709884643555,-0.8564708232879639,7.888468265533447,14.310842514038086,325.49786376953125,-67.31769561767578
2026-04-02 13:02:30.407,1889.413544825,534482021,left_foot,左脚,D4:22:CD:00:84:61,0.9423342943191528,0.08965573459863663,-0.2541932165622711,0.19838154315948486,4.556676583987944,-30.97348093669599,22.513620221086097,23.44475746154785,1.4338574409484863,3.8332066535949707,28.302204132080078,345.15692138671875,-93.1885757446289
2026-04-02 13:02:30.437,1889.443529937,534515355,left_foot,左脚,D4:22:CD:00:84:61,0.9604650139808655,0.08600729703903198,-0.17868438363075256,0.19540496170520782,5.910461581066772,-22.13883246949364,21.842260899045762,23.741662979125977,0.8772764205932617,-6.6416850090026855,31.633440017700195,263.24298095703125,-41.975341796875
2026-04-02 13:02:30.467,1889.473506608,534548689,left_foot,左脚,D4:22:CD:00:84:61,0.9683797359466553,0.08764111250638962,-0.15588878095149994,0.17395317554473877,7.03462262513392,-19.415090275725316,19.162361492000507,22.92247772216797,-2.1360766887664795,-16.076644897460938,5.319968223571777,75.38483428955078,-83.97026824951172
2026-04-02 13:02:30.497,1889.503616355,534582023,left_foot,左脚,D4:22:CD:00:84:61,0.966212809085846,0.06118031218647957,-0.1931421458721161,0.15933339297771454,3.533380604068271,-23.12438005932392,18.005091570833375,14.68795394897461,-1.2098443508148193,-5.882288455963135,-117.63143157958984,-109.2350845336914,-22.12550163269043
2026-04-02 13:02:30.558,1889.564452962,534615357,left_foot,左脚,D4:22:CD:00:84:61,0.9568290710449219,0.044635117053985596,-0.2459210753440857,0.14835748076438904,0.8149860662671731,-28.93729605251228,17.41689630222346,2.645443916320801,-4.245696067810059,10.81955337524414,-89.2339096069336,-169.90472412109375,-9.187389373779297
2026-04-02 13:02:30.587,1889.593456456,534648691,left_foot,左脚,D4:22:CD:00:84:61,0.9439559578895569,0.04595023766160011,-0.2997983396053314,0.13022346794605255,0.6086200733540504,-35.307159805604414,15.515630498561375,15.11685562133789,-4.861276149749756,7.196055889129639,-36.29323196411133,-186.7887725830078,-45.89890670776367
2026-04-02 13:02:30.617,1889.623507009,534682025,left_foot,左脚,D4:22:CD:00:84:61,0.9319328665733337,0.05362144485116005,-0.33549535274505615,0.12676669657230377,1.1086177692581227,-39.71077097885148,15.091948840638416,15.787826538085938,2.2900495529174805,4.62718391418457,7.611766815185547,-126.86676025390625,-8.157864570617676
2026-04-02 13:02:30.647,1889.653599776,534715359,left_foot,左脚,D4:22:CD:00:84:61,0.9238095283508301,0.054767727851867676,-0.35667702555656433,0.12790347635746002,0.7707584402302926,-42.29998559154198,15.467042786991884,9.467020034790039,-0.8543298840522766,5.310246467590332,-2.4814910888671875,-71.7873306274414,9.758793830871582
2026-04-02 13:02:30.677,1889.683368495,534748693,left_foot,左脚,D4:22:CD:00:84:61,0.9177345037460327,0.057573460042476654,-0.3716568946838379,0.12775427103042603,0.8558636764345413,-44.17676349639914,15.502655877122193,8.008610725402832,-0.6091005206108093,5.652108669281006,3.623774766921997,-50.60166931152344,1.515318512916565
2026-04-02 13:02:30.707,1889.71360408,534782027,left_foot,左脚,D4:22:CD:00:84:61,0.913893461227417,0.06022009998559952,-0.38096967339515686,0.126631498336792,1.1078132955308915,-45.363785018692816,15.314637943517459,8.096899032592773,-0.3095530867576599,5.814690113067627,3.9388339519500732,-30.171817779541016,-3.483891725540161
2026-04-02 13:02:30.737,1889.743609636,534815361,left_foot,左脚,D4:22:CD:00:84:61,0.9112642407417297,0.06001561880111694,-0.38703134655952454,0.12729404866695404,0.8964277572693259,-46.10849278818668,15.522803485001011,7.989661693572998,1.460066318511963,5.566838264465332,-1.5231939554214478,-16.9729061126709,4.665726184844971
2026-04-02 13:02:30.767,1889.773487853,534848695,left_foot,左脚,D4:22:CD:00:84:61,0.9106851816177368,0.05536199361085892,-0.3878367841243744,0.13104046881198883,-0.06696001985506511,-46.129061015869816,16.404933212453795,7.831921577453613,0.2227705717086792,5.53502082824707,-9.525788307189941,4.6022443771362305,18.352163314819336
2026-04-02 13:02:30.798,1889.804279026,534882029,left_foot,左脚,D4:22:CD:00:84:61,0.910836935043335,0.05264934152364731,-0.3877054750919342,0.13149048388004303,-0.49952949509550276,-46.06421319302282,16.641563119897683,7.676918029785156,-1.1411529779434204,5.998869895935059,-7.520120143890381,6.773857593536377,4.943500518798828
2026-04-02 13:02:30.827,1889.833571234,534915363,left_foot,左脚,D4:22:CD:00:84:61,0.9108848571777344,0.05209986865520477,-0.38808995485305786,0.13023890554904938,-0.510256680165906,-46.10240605445161,16.491204514917037,7.72968053817749,-0.340411901473999,5.576761245727539,-3.1891472339630127,3.507343292236328,-3.15342378616333
2026-04-02 13:02:30.857,1889.863558363,534948697,left_foot,左脚,D4:22:CD:00:84:61,0.9097603559494019,0.04923148453235626,-0.3917330205440521,0.12829285860061646,-0.9102857167733422,-46.50191522093276,16.444764518157438,7.377844333648682,0.5732123851776123,5.736234664916992,-12.646733283996582,-7.549027442932129,-1.0947285890579224
2026-04-02 13:02:30.917,1889.923152822,534982031,left_foot,左脚,D4:22:CD:00:84:61,0.9073086380958557,0.04615684226155281,-0.3984496295452118,0.12609373033046722,-1.4128124824009962,-47.2795846328916,16.442506413372723,7.553400993347168,-0.3184547424316406,5.966966152191162,-14.792960166931152,-19.11285400390625,-0.45287469029426575
2026-04-02 13:02:30.947,1889.953517513,535015365,left_foot,左脚,D4:22:CD:00:84:61,0.9039909243583679,0.045260656625032425,-0.406611829996109,0.12417685240507126,-1.6491685585840274,-48.27833361088074,16.38209011203403,7.816067695617676,-0.5706844329833984,5.779545783996582,-8.093939781188965,-25.905132293701172,-1.9470717906951904
2026-04-02 13:02:30.977,1889.983575319,535048699,left_foot,左脚,D4:22:CD:00:84:61,0.8995707035064697,0.04403134435415268,-0.4164990186691284,0.12395116686820984,-2.120101989910901,-49.48667773638175,16.66785098648818,7.577198028564453,0.792548418045044,5.92266321182251,-7.331700801849365,-32.57223129272461,4.524943828582764
2026-04-02 13:02:31.007,1890.013380604,535082033,left_foot,左脚,D4:22:CD:00:84:61,0.8934058547019958,0.040808238089084625,-0.429114431142807,0.126581072807312,-3.2532893798140066,-50.993702229370605,17.680251108611145,7.823480129241943,-0.10489387810230255,6.107425212860107,-10.336882591247559,-42.41590881347656,17.425029754638672
2026-04-02 13:02:31.037,1890.043414402,535115367,left_foot,左脚,D4:22:CD:00:84:61,0.8850012421607971,0.04042288661003113,-0.4452682137489319,0.12990957498550415,-4.206098725631381,-52.999217990640815,18.79940455340595,7.835132122039795,-1.0281134843826294,6.636051177978516,-1.7926350831985474,-57.92062759399414,16.854015350341797
2026-04-02 13:02:31.067,1890.073472145,535148701,left_foot,左脚,D4:22:CD:00:84:61,0.8735349774360657,0.04301659017801285,-0.466573566198349,0.13189563155174255,-4.883507712814598,-55.73914650111223,19.756030869721993,8.395538330078125,-1.1556884050369263,7.194454193115234,3.375189781188965,-80.02152252197266,10.252869606018066
2026-04-02 13:02:31.097,1890.103575828,535182035,left_foot,左脚,D4:22:CD:00:84:61,0.8575217127799988,0.04940017685294151,-0.49495962262153625,0.1312723308801651,-5.1159870245806465,-59.52447236191348,20.333715227127772,8.655007362365723,-1.3492350578308105,7.644341468811035,8.055634498596191,-110.93374633789062,-0.6101176142692566
2026-04-02 13:02:31.127,1890.133542102,535215369,left_foot,左脚,D4:22:CD:00:84:61,0.833544135093689,0.058211810886859894,-0.5339956283569336,0.12909483909606934,-5.514125860467141,-64.85649037442431,21.112234454425096,8.882315635681152,0.37336286902427673,8.226409912109375,9.113835334777832,-157.5615234375,-3.9705567359924316
2026-04-02 13:02:31.157,1890.163505943,535248703,left_foot,左脚,D4:22:CD:00:84:61,0.7974476218223572,0.06570954620838165,-0.5863316655158997,0.12639719247817993,-8.134173187114333,-72.12849348589748,23.94160674079722,9.339991569519043,-0.16646189987659454,9.073079109191895,0.8611730337142944,-217.8968048095703,5.037899494171143
2026-04-02 13:02:31.217,1890.223582907,535282037,left_foot,左脚,D4:22:CD:00:84:61,0.7399675250053406,0.0733669176697731,-0.6566882729530334,0.12580592930316925,-24.081614145296935,-82.0192321756011,40.31372316398145,11.251076698303223,2.5938963890075684,11.848945617675781,2.5127980709075928,-310.7690124511719,23.92878532409668
2026-04-02 13:02:31.277,1890.283641976,535315371,left_foot,左脚,D4:22:CD:00:84:61,0.6635082960128784,0.07980572432279587,-0.7323248982429504,0.13072660565376282,-134.92316920561862,-83.05910896603002,152.07761158981046,13.215216636657715,1.6192336082458496,9.00015640258789,14.332914352416992,-366.1107177734375,50.53718948364258
2026-04-02 13:02:31.278,1890.284292503,535348705,left_foot,左脚,D4:22:CD:00:84:61,0.5998530387878418,0.09801999479532242,-0.7802374958992004,0.14764530956745148,-154.52465465797772,-74.79613819061474,174.7112738846703,4.56958532333374,0.7386687397956848,5.6830525398254395,80.41594696044922,-272.7511291503906,34.949073791503906
2026-04-02 13:02:31.307,1890.313569012,535382039,left_foot,左脚,D4:22:CD:00:84:61,0.5785958170890808,0.11430900543928146,-0.7946722507476807,0.14372798800468445,-161.60501493672294,-72.25935509343091,-177.1114039790631,13.973109245300293,6.377248764038086,8.83691120147705,23.197214126586914,-96.25347900390625,-35.503440856933594
2026-04-02 13:02:31.367,1890.373271205,535415373,left_foot,左脚,D4:22:CD:00:84:61,0.595491349697113,0.12307483702898026,-0.7820425033569336,0.13657785952091217,-165.18551762310577,-74.79997558423096,-173.4654910421823,5.685417652130127,-0.1676490604877472,7.816067695617676,-2.1666324138641357,63.54666519165039,-50.52660369873047
2026-04-02 13:02:31.368,1890.374377044,535448707,left_foot,左脚,D4:22:CD:00:84:61,0.6364232301712036,0.13356734812259674,-0.7449480891227722,0.14892606437206268,-160.38709849730182,-81.10986236767096,-176.49740239228638,8.111266136169434,0.37254777550697327,4.877754211425781,55.082420349121094,185.3204345703125,-36.913455963134766
2026-04-02 13:02:31.397,1890.403524843,535482041,left_foot,左脚,D4:22:CD:00:84:61,0.694793701171875,0.12677446007728577,-0.686996579170227,0.1709589660167694,-67.8326207517232,-86.36387170688627,92.1517812046505,6.388158798217773,0.22368788719177246,4.123086452484131,44.64301681518555,288.9078674316406,10.161908149719238
2026-04-02 13:02:31.427,1890.43339535,535515375,left_foot,左脚,D4:22:CD:00:84:61,0.7500665783882141,0.12080351263284683,-0.6211629509925842,0.192261204123497,-16.141044998278176,-78.03589927794643,41.86252104147443,8.01590633392334,-2.7812557220458984,3.8868393898010254,50.70278549194336,299.52789306640625,4.806763172149658
2026-04-02 13:02:31.457,1890.463605814,535548709,left_foot,左脚,D4:22:CD:00:84:61,0.8022181391716003,0.11169217526912689,-0.548313558101654,0.20814567804336548,-7.477297978167655,-67.85445804037047,34.12435859268553,8.196540832519531,-1.7105164527893066,4.854241371154785,36.846839904785156,310.79144287109375,-3.4658820629119873
2026-04-02 13:02:31.517,1890.523593527,535582043,left_foot,左脚,D4:22:CD:00:84:61,0.8440065979957581,0.10546762496232986,-0.47727882862091064,0.2207617312669754,-3.583306013609412,-58.453760738301746,31.321537828506,9.81862735748291,-2.5960276126861572,5.583231449127197,41.27888870239258,282.83856201171875,-9.962515830993652
2026-04-02 13:02:31.547,1890.553628185,535615377,left_foot,左脚,D4:22:CD:00:84:61,0.8788175582885742,0.10374398529529572,-0.40818554162979126,0.22428245842456818,-0.06692109157788569,-49.816001203918944,28.664702787532498,11.40262508392334,-1.275022029876709,7.327960968017578,40.501956939697266,259.0993347167969,-37.89393997192383
2026-04-02 13:02:31.577,1890.583662788,535648711,left_foot,左脚,D4:22:CD:00:84:61,0.9102932214736938,0.11249031126499176,-0.3378748893737793,0.2110789567232132,4.760889331094773,-41.499848447694134,24.30545107165036,18.411279678344727,-1.6921173334121704,7.501755714416504,50.914085388183594,244.29966735839844,-101.12548065185547
2026-04-02 13:02:31.608,1890.61427592,535682045,left_foot,左脚,D4:22:CD:00:84:61,0.9386555552482605,0.11060334742069244,-0.25817352533340454,0.20010064542293549,7.060505654854033,-31.93352533330788,22.045630866449166,20.464479446411133,1.446141242980957,4.252769470214844,28.337066650390625,279.5215148925781,-83.29256439208984
2026-04-02 13:02:31.637,1890.643563844,535715379,left_foot,左脚,D4:22:CD:00:84:61,0.9525103569030762,0.11212983727455139,-0.19823847711086273,0.20212312042713165,8.470347136667144,-25.022612071188824,22.078107399659952,20.743423461914062,-3.744375705718994,-5.520286560058594,42.83124923706055,206.41603088378906,-26.977205276489258
2026-04-02 13:02:31.667,1890.67353278,535748713,left_foot,左脚,D4:22:CD:00:84:61,0.9577652215957642,0.1173536628484726,-0.17674410343170166,0.19410519301891327,9.738828364397678,-22.58887647977137,20.96378560829692,18.37883949279785,-2.0837104320526123,-12.917838096618652,24.807844161987305,69.61227416992188,-41.872169494628906
2026-04-02 13:02:31.697,1890.703538229,535782047,left_foot,左脚,D4:22:CD:00:84:61,0.9559534788131714,0.08596668392419815,-0.21301476657390594,0.1827257126569748,5.524501670784146,-26.019721519905605,20.365171456178448,14.399487495422363,-0.379154235124588,-7.397256374359131,-133.63246154785156,-100.32603454589844,-2.8083858489990234
2026-04-02 13:02:31.728,1890.734305172,535815381,left_foot,左脚,D4:22:CD:00:84:61,0.948573112487793,0.06042180210351944,-0.26052361726760864,0.16937267780303955,1.763058409657914,-30.97862626826003,19.758922144443765,2.91616153717041,-4.856693744659424,11.6742582321167,-121.29768371582031,-145.1819610595703,-6.5831708908081055
2026-04-02 13:02:31.787,1890.793625767,535848715,left_foot,左脚,D4:22:CD:00:84:61,0.9353519678115845,0.061017345637083054,-0.311139851808548,0.15680187940597534,1.1881990754553748,-36.9548184471599,18.63602843986523,12.294231414794922,-6.774703025817871,7.756647109985352,-35.54158020019531,-175.84104919433594,-23.485227584838867
2026-04-02 13:02:31.817,1890.823483878,535882049,left_foot,左脚,D4:22:CD:00:84:61,0.9212020635604858,0.06734391301870346,-0.3516520857810974,0.15229432284832,1.306972894433376,-41.94343753006977,18.2736324374228,16.188323974609375,3.9897873401641846,4.947548866271973,-2.6861987113952637,-145.51087951660156,-5.437441349029541
2026-04-02 13:02:31.848,1890.854391808,535915383,left_foot,左脚,D4:22:CD:00:84:61,0.911813497543335,0.06629100441932678,-0.3753930628299713,0.15258732438087463,0.5112277958101186,-44.81390673880609,18.789466996032903,9.796236991882324,-0.544426679611206,5.435589790344238,-12.756523132324219,-81.28092193603516,12.430508613586426
2026-04-02 13:02:31.877,1890.883608725,535948717,left_foot,左脚,D4:22:CD:00:84:61,0.9050590991973877,0.06586115807294846,-0.39160212874412537,0.1522480547428131,-0.002079176681191086,-46.79422388295205,19.098566875858698,8.662936210632324,-1.7497810125350952,5.657036781311035,-8.22327995300293,-54.81669616699219,6.522180080413818
2026-04-02 13:02:31.907,1890.913512273,535982051,left_foot,左脚,D4:22:CD:00:84:61,0.9010874629020691,0.06779861450195312,-0.4006671905517578,0.15136665105819702,0.07610989708859131,-47.95305062555394,19.037438400028808,8.204668998718262,-1.099734902381897,5.5511555671691895,1.5609893798828125,-30.335906982421875,-1.4671722650527954
2026-04-02 13:02:31.940,1890.946376933,536015385,left_foot,左脚,D4:22:CD:00:84:61,0.8990319967269897,0.06975546479225159,-0.40529754757881165,0.15036886930465698,0.3062027871756213,-48.56682942038213,18.852242450673508,7.915341377258301,0.28186988830566406,5.674345970153809,3.3203678131103516,-14.156416893005371,-3.900852918624878
2026-04-02 13:02:31.967,1890.973607794,536048719,left_foot,左脚,D4:22:CD:00:84:61,0.8988187909126282,0.06848263740539551,-0.4058404266834259,0.15076425671577454,0.06364685246064533,-48.607915015458836,19.015104038530886,7.830137252807617,0.25617164373397827,5.545388698577881,-3.0920557975769043,2.8906147480010986,3.015989303588867
2026-04-02 13:02:31.997,1891.003536426,536082053,left_foot,左脚,D4:22:CD:00:84:61,0.8995069861412048,0.06733474880456924,-0.40450480580329895,0.15076543390750885,-0.07204486493247506,-48.4185022186476,19.06208150964843,7.6132731437683105,-0.4184982478618622,5.878230094909668,-2.509061813354492,9.642295837402344,0.740172803401947
2026-04-02 13:02:32.028,1891.03437708,536115387,left_foot,左脚,D4:22:CD:00:84:61,0.8997750878334045,0.06662984192371368,-0.40419185161590576,0.15031766891479492,-0.13889788758668323,-48.365131507615295,19.031022505386193,7.566092491149902,0.1714007556438446,5.78551721572876,-2.199632406234741,5.406359672546387,-0.798521101474762
2026-04-02 13:02:32.057,1891.063352881,536148721,left_foot,左脚,D4:22:CD:00:84:61,0.8991006016731262,0.065522201359272,-0.4058557152748108,0.15035796165466309,-0.36569436042406106,-48.54818700158259,19.152535611920502,7.51738977432251,-0.027846340090036392,5.641414642333984,-3.5980732440948486,-1.833485722541809,2.2439773082733154
2026-04-02 13:02:32.117,1891.123572641,536182055,left_foot,左脚,D4:22:CD:00:84:61,0.897504985332489,0.06412429362535477,-0.4095135033130646,0.15057551860809326,-0.7176421777148255,-48.972171839470924,19.374616767898058,7.431318283081055,0.20163244009017944,5.950706958770752,-5.087620735168457,-9.22687816619873,4.148595809936523
2026-04-02 13:02:32.177,1891.183200317,536215389,left_foot,左脚,D4:22:CD:00:84:61,0.8955287337303162,0.0631345883011818,-0.41426604986190796,0.14975851774215698,-0.9715078688344859,-49.5420962490571,19.43566610832488,7.756640911102295,-0.592582643032074,5.781599044799805,-5.780618190765381,-13.72390365600586,0.8411652445793152
2026-04-02 13:02:32.177,1891.183757198,536248723,left_foot,左脚,D4:22:CD:00:84:61,0.8935145735740662,0.06269603222608566,-0.4191930592060089,0.14825394749641418,-1.0957504359088885,-50.147727000903714,19.354325753037006,7.721160888671875,-0.23311589658260345,5.63465690612793,-5.145859241485596,-14.871323585510254,-2.000192403793335
2026-04-02 13:02:32.207,1891.213602349,536282057,left_foot,左脚,D4:22:CD:00:84:61,0.8909062147140503,0.06198500096797943,-0.4250425696372986,0.14759473502635956,-1.3638150811064227,-50.863307061190554,19.461825414774104,7.525697231292725,0.33559176325798035,5.838743209838867,-5.123379230499268,-18.362388610839844,1.5108592510223389
2026-04-02 13:02:32.237,1891.243615426,536315391,left_foot,左脚,D4:22:CD:00:84:61,0.88661128282547,0.060680489987134933,-0.4340057671070099,0.14791449904441833,-1.9334022280521745,-51.956097032826975,19.88513256574576,7.522377967834473,0.11535339057445526,6.2384138107299805,-6.761476039886475,-29.996253967285156,6.9344635009765625
2026-04-02 13:02:32.297,1891.303849534,536348725,left_foot,左脚,D4:22:CD:00:84:61,0.8799872994422913,0.05957287549972534,-0.4470480978488922,0.14907336235046387,-2.74477303802951,-53.56716532647002,20.61540018465101,7.6999640464782715,-0.34335628151893616,6.218475818634033,-6.512545108795166,-45.98917007446289,11.258522987365723
2026-04-02 13:02:32.298,1891.304457923,536382059,left_foot,左脚,D4:22:CD:00:84:61,0.871249794960022,0.06150434911251068,-0.46317505836486816,0.1503702700138092,-3.2635381790742137,-55.647144787285995,21.307305138171277,7.89846134185791,-0.8578516840934753,6.606191635131836,1.7507227659225464,-60.25263214111328,8.713335990905762
2026-04-02 13:02:32.327,1891.333679637,536415393,left_foot,左脚,D4:22:CD:00:84:61,0.8597999215126038,0.06665369868278503,-0.4834164083003998,0.1503704935312271,-3.3618393771074073,-58.35631192518243,21.717828849705022,8.429693222045898,-1.261788010597229,7.00955867767334,7.7784013748168945,-79.02008819580078,1.9468889236450195
2026-04-02 13:02:32.357,1891.363622882,536448727,left_foot,左脚,D4:22:CD:00:84:61,0.8445003032684326,0.07563766092061996,-0.509184718132019,0.14775122702121735,-2.7666067612222034,-61.92876789162278,21.50792000749969,8.574437141418457,-1.1713331937789917,7.15480375289917,12.793929100036621,-104.53565979003906,-8.965658187866211
2026-04-02 13:02:32.417,1891.423287906,536482061,left_foot,左脚,D4:22:CD:00:84:61,0.8220140337944031,0.08669939637184143,-0.5442463159561157,0.14343400299549103,-1.9828175541768835,-66.8715218727282,21.1051631020138,8.579821586608887,0.5960779190063477,7.614368915557861,12.9869966506958,-145.85208129882812,-11.49990463256836
2026-04-02 13:02:32.447,1891.453598002,536515395,left_foot,左脚,D4:22:CD:00:84:61,0.7875023484230042,0.09885424375534058,-0.5923407077789307,0.13856954872608185,-1.7395566394780284,-73.80841980098187,21.265642008247703,9.020509719848633,-0.23647883534431458,8.444557189941406,12.160892486572266,-206.2554473876953,-5.239985942840576
2026-04-02 13:02:32.477,1891.483630858,536548729,left_foot,左脚,D4:22:CD:00:84:61,0.7326793074607849,0.11312053352594376,-0.6576188206672668,0.1338789314031601,-5.385060552219999,-83.68647281496149,25.53310145406962,11.708245277404785,1.62548828125,9.405498504638672,16.922061920166016,-295.7373962402344,6.485397815704346
2026-04-02 13:02:32.507,1891.513620501,536582063,left_foot,左脚,D4:22:CD:00:84:61,0.6672506332397461,0.12259376794099808,-0.7227925658226013,0.13160349428653717,-160.42285754771322,-85.43949371155324,-178.85079362890195,12.779227256774902,2.633432388305664,8.799215316772461,14.44126033782959,-316.88970947265625,28.421693801879883
2026-04-02 13:02:32.537,1891.543470478,536615397,left_foot,左脚,D4:22:CD:00:84:61,0.6018295884132385,0.1380155086517334,-0.7739195227622986,0.1407221257686615,-167.64539605165285,-76.01944332065632,-169.44753460177512,8.325270652770996,0.33137527108192444,4.694570541381836,62.79299545288086,-282.92645263671875,34.003501892089844
2026-04-02 13:02:32.567,1891.573424871,536648731,left_foot,左脚,D4:22:CD:00:84:61,0.5739424228668213,0.14906656742095947,-0.7909470200538635,0.15090839564800262,-167.11833604276111,-72.34607653549982,-168.09090944857957,13.97939682006836,4.944289207458496,8.76869010925293,55.224510192871094,-109.99237823486328,13.622749328613281
2026-04-02 13:02:32.597,1891.603429018,536682065,left_foot,左脚,D4:22:CD:00:84:61,0.5903606414794922,0.14890356361865997,-0.7779853940010071,0.1550552248954773,-165.59801849948232,-74.7438656643051,-169.35379172526908,5.444729328155518,0.8512845635414124,9.038422584533691,9.551335334777832,71.69432067871094,-5.845930576324463
2026-04-02 13:02:32.627,1891.633358277,536715399,left_foot,左脚,D4:22:CD:00:84:61,0.6190864443778992,0.15258342027664185,-0.7507973909378052,0.172496035695076,-158.05327964585007,-79.19036853602826,-175.24750216340374,4.098025798797607,1.4475693702697754,6.036940097808838,54.14775848388672,137.81211853027344,-2.941702127456665
2026-04-02 13:02:32.657,1891.663383263,536748733,left_foot,左脚,D4:22:CD:00:84:61,0.6620193123817444,0.13920801877975464,-0.710835337638855,0.19252514839172363,-118.89214154290082,-84.13997108574213,146.06096624203062,7.132267475128174,1.396133303642273,4.445686340332031,24.55262565612793,212.98516845703125,31.64444351196289
2026-04-02 13:02:32.717,1891.72341766,536782067,left_foot,左脚,D4:22:CD:00:84:61,0.7122902870178223,0.126667320728302,-0.6582759618759155,0.2080196738243103,-42.69477425566105,-82.08117928042543,70.14046061174598,6.3726806640625,-0.43322524428367615,4.471345901489258,20.04400062561035,256.81158447265625,8.41916275024414
2026-04-02 13:02:32.747,1891.753301894,536815401,left_foot,左脚,D4:22:CD:00:84:61,0.7611247897148132,0.12011362612247467,-0.6010684967041016,0.2120841145515442,-16.177058329329256,-74.99947496013561,43.587445103898325,9.093913078308105,0.012509612366557121,4.352334499359131,12.677773475646973,255.58486938476562,-34.206111907958984
2026-04-02 13:02:32.777,1891.78337338,536848735,left_foot,左脚,D4:22:CD:00:84:61,0.8069691061973572,0.11465536057949066,-0.5403341054916382,0.20903484523296356,-5.982885275698446,-66.9258494078508,33.00148692856433,10.36992359161377,0.45728933811187744,4.584006309509277,4.603193759918213,254.91798400878906,-54.41087341308594
2026-04-02 13:02:32.807,1891.813438784,536882069,left_foot,左脚,D4:22:CD:00:84:61,0.8474007248878479,0.11504516750574112,-0.4772762060165405,0.20220138132572174,0.21757997392471531,-58.80526189179828,26.718594461901592,12.483720779418945,0.3922654092311859,5.29580545425415,17.61383056640625,245.7099609375,-72.85701751708984
2026-04-02 13:02:32.840,1891.846453622,536915403,left_foot,左脚,D4:22:CD:00:84:61,0.884779691696167,0.11240777373313904,-0.4102143347263336,0.19040681421756744,3.8276415950877163,-50.23766406124447,22.494886951765633,14.998568534851074,0.490416944026947,6.259846210479736,4.644566059112549,252.76885986328125,-81.85444641113281
2026-04-02 13:02:32.867,1891.873501003,536948737,left_foot,左脚,D4:22:CD:00:84:61,0.917233407497406,0.11467231065034866,-0.3328917920589447,0.18632635474205017,6.5467901224276925,-40.799275466300095,20.528613460773155,17.903919219970703,-0.8153483867645264,4.558046817779541,39.14341735839844,277.36248779296875,-66.16234588623047
2026-04-02 13:02:32.897,1891.903435293,536982071,left_foot,左脚,D4:22:CD:00:84:61,0.9393234252929688,0.11715786904096603,-0.25870856642723083,0.19239816069602966,8.179329435194612,-32.08001587183637,20.795914951064546,18.722610473632812,0.26560187339782715,0.3546985387802124,53.57358932495117,260.2337341308594,-26.638017654418945
2026-04-02 13:02:32.927,1891.933461083,537015405,left_foot,左脚,D4:22:CD:00:84:61,0.9500290155410767,0.1271299570798874,-0.20714974403381348,0.19589100778102875,10.308582934424358,-26.321215923589897,20.885064473365926,18.275842666625977,-3.445491075515747,-7.4636640548706055,65.02277374267578,172.1094512939453,-25.182483673095703
2026-04-02 13:02:32.957,1891.963413375,537048739,left_foot,左脚,D4:22:CD:00:84:61,0.9529569745063782,0.13592249155044556,-0.19743581116199493,0.18552279472351074,11.855439721051528,-25.26011820462464,19.36764684283966,18.6220645904541,-0.577593982219696,-11.59367847442627,26.642169952392578,25.888673782348633,-46.42805099487305
2026-04-02 13:02:33.017,1892.023608668,537082073,left_foot,左脚,D4:22:CD:00:84:61,0.9494683146476746,0.09206879884004593,-0.2401280552148819,0.1799251139163971,5.818455142496475,-29.282647438327245,19.939436411497436,8.744749069213867,1.597860336303711,3.0949409008026123,-173.3184051513672,-113.17726135253906,33.48347091674805
2026-04-02 13:02:33.047,1892.053396912,537115407,left_foot,左脚,D4:22:CD:00:84:61,0.9430718421936035,0.06654983758926392,-0.28965869545936584,0.14928369224071503,2.7147361325290267,-34.486140734355104,17.147287096729094,2.491595506668091,-6.786163806915283,8.58044147491455,-137.384765625,-157.25466918945312,-59.270851135253906
2026-04-02 13:02:33.077,1892.083416333,537148741,left_foot,左脚,D4:22:CD:00:84:61,0.9295891523361206,0.06566906720399857,-0.33902043104171753,0.1289108395576477,2.60779909139947,-40.33304329893241,14.832389770777462,14.511635780334473,-6.636499881744385,7.479256629943848,-45.13093185424805,-174.17086791992188,-47.022254943847656
2026-04-02 13:02:33.137,1892.143464208,537182075,left_foot,左脚,D4:22:CD:00:84:61,0.9166279435157776,0.067509725689888,-0.37171241641044617,0.13064032793045044,2.1352432417492673,-44.353399563097035,15.352201972062813,15.379995346069336,6.573221206665039,5.01415491104126,-3.2310664653778076,-116.0648422241211,16.33336639404297
2026-04-02 13:02:33.138,1892.144594749,537215409,left_foot,左脚,D4:22:CD:00:84:61,0.9079663157463074,0.06206905469298363,-0.3920441269874573,0.13434052467346191,0.6172216329025622,-46.76928082091715,16.565670814671726,9.458658218383789,-2.1045539379119873,5.713753700256348,-19.253528594970703,-67.6897964477539,27.20360565185547
2026-04-02 13:02:33.167,1892.173613015,537248743,left_foot,左脚,D4:22:CD:00:84:61,0.9015039205551147,0.058626480400562286,-0.4063724875450134,0.1368083655834198,-0.4742174212458293,-48.48073117844022,17.471766940847726,8.500426292419434,-2.2367336750030518,5.713777542114258,-12.266378402709961,-47.253055572509766,18.318851470947266
2026-04-02 13:02:33.197,1892.203667723,537282077,left_foot,左脚,D4:22:CD:00:84:61,0.8972529768943787,0.05943675339221954,-0.4152781665325165,0.13765887916088104,-0.6784599232060207,-49.60385844875117,17.758430451003612,7.889683246612549,-0.337990403175354,5.663936614990234,0.842960000038147,-29.798978805541992,5.165555477142334
2026-04-02 13:02:33.227,1892.233552375,537315411,left_foot,左脚,D4:22:CD:00:84:61,0.8946606516838074,0.05831378325819969,-0.42070502042770386,0.13852927088737488,-1.0950067715870344,-50.25806428841009,18.117190599056013,7.79743766784668,-0.16898126900196075,5.744311332702637,-3.795351266860962,-15.92666244506836,6.50748872756958
2026-04-02 13:02:33.257,1892.263591254,537348745,left_foot,左脚,D4:22:CD:00:84:61,0.8925042152404785,0.05800522863864899,-0.42541053891181946,0.13819894194602966,-1.2742390624975486,-50.84065809369079,18.209637747653385,7.265066623687744,-0.5172744393348694,6.2500505447387695,-2.768446207046509,-13.8660249710083,1.2869617938995361
2026-04-02 13:02:33.317,1892.323585235,537382079,left_foot,左脚,D4:22:CD:00:84:61,0.8912596106529236,0.058449335396289825,-0.42818084359169006,0.13748590648174286,-1.2390779887865595,-51.19758443213765,18.13232582134274,7.946446418762207,-0.33948320150375366,5.561420917510986,-0.2817271053791046,-7.201054096221924,-1.810972809791565
2026-04-02 13:02:33.347,1892.353387964,537415413,left_foot,左脚,D4:22:CD:00:84:61,0.8919841647148132,0.057429227977991104,-0.4269101321697235,0.13716870546340942,-1.3358530044556198,-51.018404169328804,18.122296199036285,7.764894008636475,0.024269379675388336,5.556046009063721,-2.686717987060547,8.742408752441406,-0.16857658326625824
2026-04-02 13:02:33.377,1892.383550464,537448747,left_foot,左脚,D4:22:CD:00:84:61,0.8924838900566101,0.05654298514127731,-0.4262367784976959,0.1363782435655594,-1.3934967488608452,-50.91761636138678,18.039498640237447,7.467031955718994,-0.569312334060669,5.938808917999268,-3.220958948135376,6.300180435180664,-1.5765329599380493
2026-04-02 13:02:33.407,1892.413577749,537482081,left_foot,左脚,D4:22:CD:00:84:61,0.8915855288505554,0.05700976774096489,-0.42846816778182983,0.13506163656711578,-1.2878953665390531,-51.20846601242359,17.845087081218058,7.509731769561768,-0.103061743080616,5.9011006355285645,-0.9313359260559082,-5.542943954467773,-3.955871343612671
2026-04-02 13:02:33.437,1892.443519388,537515415,left_foot,左脚,D4:22:CD:00:84:61,0.8899527192115784,0.05705488473176956,-0.43212905526161194,0.13414441049098969,-1.3288977058886409,-51.67029935799719,17.78700723029402,7.657742500305176,-0.011918350122869015,5.76120662689209,-2.177922010421753,-10.86058521270752,-1.4696335792541504
2026-04-02 13:02:33.467,1892.473481616,537548749,left_foot,左脚,D4:22:CD:00:84:61,0.8880261182785034,0.05641171708703041,-0.43631088733673096,0.13364706933498383,-1.5358507704088824,-52.18442224735729,17.869634285355392,7.627586841583252,0.021472500637173653,5.758081912994385,-3.8620779514312744,-12.607306480407715,1.0969785451889038
2026-04-02 13:02:33.497,1892.503591637,537582083,left_foot,左脚,D4:22:CD:00:84:61,0.8856827616691589,0.055672865360975266,-0.4412875175476074,0.13316625356674194,-1.7924497804773531,-52.797914973522744,17.991034690061426,7.653357982635498,-0.21244409680366516,5.713078498840332,-4.426365375518799,-15.726276397705078,1.6514779329299927
2026-04-02 13:02:33.527,1892.533530371,537615417,left_foot,左脚,D4:22:CD:00:84:61,0.882645845413208,0.053839653730392456,-0.4475361108779907,0.13323064148426056,-2.33525219119017,-53.550117936634756,18.345846759057206,7.6041154861450195,0.16757434606552124,5.77916955947876,-7.394686698913574,-20.157926559448242,5.552880764007568
2026-04-02 13:02:33.557,1892.563337364,537648751,left_foot,左脚,D4:22:CD:00:84:61,0.8787625432014465,0.05234752595424652,-0.45524096488952637,0.13339059054851532,-2.906352602363219,-54.49469305503537,18.759430088734327,7.75330924987793,-0.682664692401886,5.769202709197998,-6.7353363037109375,-26.13062286376953,5.993785381317139
2026-04-02 13:02:33.617,1892.623534413,537682085,left_foot,左脚,D4:22:CD:00:84:61,0.8733524680137634,0.05162579566240311,-0.4655638039112091,0.1335734724998474,-3.4874063958861523,-55.791095149470365,19.237801731746252,7.630520820617676,-0.02732967957854271,6.136435508728027,-5.292073726654053,-36.89196014404297,6.023155212402344
2026-04-02 13:02:33.647,1892.653518599,537715419,left_foot,左脚,D4:22:CD:00:84:61,0.8657667636871338,0.05079811438918114,-0.47920161485671997,0.13503651320934296,-4.426666364316799,-57.50854047331917,20.160193275681408,7.984725475311279,-0.2810460925102234,6.2850751876831055,-4.713964462280273,-50.18826675415039,11.64466667175293
2026-04-02 13:02:33.677,1892.683285251,537748753,left_foot,左脚,D4:22:CD:00:84:61,0.8565064072608948,0.05153144523501396,-0.49505606293678284,0.13660885393619537,-5.320299685701835,-59.554964193241595,21.16983278363481,8.222748756408691,-1.0342971086502075,6.037227153778076,-0.628287136554718,-60.383235931396484,10.563251495361328
2026-04-02 13:02:33.707,1892.713517146,537782087,left_foot,左脚,D4:22:CD:00:84:61,0.8448408246040344,0.05494214594364166,-0.5143167972564697,0.13676543533802032,-5.875847926272545,-62.13593777521523,21.932927466956855,8.574095726013184,-0.9565690755844116,6.62566614151001,3.6849358081817627,-76.14929962158203,3.5361075401306152
