local_time,arrival_time_monotonic,timestamp_us,role,role_label,mac_address,quat_w,quat_x,quat_y,quat_z,euler_x,euler_y,euler_z,acc_x,acc_y,acc_z,gyro_x,gyro_y,gyro_z
2026-04-02 13:02:22.133,1881.138920189,619944885,right_foot,右脚,D4:22:CD:00:85:22,0.8884827494621277,-0.061699774116277695,-0.4463649094104767,0.0868908241391182,-17.49574106179009,-51.48569159713862,19.65803954988499,-0.052917204797267914,0.008237138390541077,-0.044003624469041824,-0.011826046742498875,0.005161039996892214,-0.008212955668568611
2026-04-02 13:02:22.162,1881.168354855,619978219,right_foot,右脚,D4:22:CD:00:85:22,0.8906817436218262,-0.050411153584718704,-0.4443396329879761,0.0818973183631897,-15.16026157284791,-51.56125284264033,17.86237557223534,7.2659807205200195,-1.3590589761734009,5.951188564300537,5.361372470855713,-19.20599365234375,-0.7372527718544006
2026-04-02 13:02:22.192,1881.19866788,620011553,right_foot,右脚,D4:22:CD:00:85:22,0.8898699879646301,-0.045117612928152084,-0.4472447335720062,0.07789874821901321,-14.127509642345245,-52.08748735262137,16.93631056819675,7.3192033767700195,-1.324790358543396,5.584250450134277,6.556396484375,-24.213476181030273,-4.3021087646484375
2026-04-02 13:02:22.252,1881.258743446,620044887,right_foot,右脚,D4:22:CD:00:85:22,0.8873743414878845,-0.04050189256668091,-0.45322179794311523,0.07427550852298737,-13.365408479680228,-52.971667041246164,16.251701168833222,7.330698013305664,-1.7783252000808716,5.414700031280518,10.686962127685547,-27.906902313232422,-10.086967468261719
2026-04-02 13:02:22.282,1881.288738998,620078221,right_foot,右脚,D4:22:CD:00:85:22,0.8844022154808044,-0.03578273952007294,-0.45991310477256775,0.07093960046768188,-12.61437596817222,-53.94178586021372,15.610519331550844,7.515689373016357,-1.0994316339492798,5.37953519821167,14.0117769241333,-27.053560256958008,-16.779972076416016
2026-04-02 13:02:22.312,1881.318806236,620111555,right_foot,右脚,D4:22:CD:00:85:22,0.8814975023269653,-0.030633099377155304,-0.46633100509643555,0.06752223521471024,-11.734092705844757,-54.8853160772699,14.869601814981175,7.757101058959961,-0.3856499195098877,5.37570858001709,11.307106971740723,-25.69440269470215,-14.633528709411621
2026-04-02 13:02:22.342,1881.348574862,620144889,right_foot,右脚,D4:22:CD:00:85:22,0.8782178163528442,-0.024803176522254944,-0.4733463227748871,0.06373173743486404,-10.68512637755877,-55.91843499428478,13.984748942368428,7.513697624206543,-1.2278953790664673,5.596424579620361,9.955568313598633,-28.41715431213379,-15.391966819763184
2026-04-02 13:02:22.371,1881.377564153,620178223,right_foot,右脚,D4:22:CD:00:85:22,0.8737000823020935,-0.018685784190893173,-0.48248204588890076,0.05924808606505394,-9.55314872350569,-57.23261195633049,12.979467399041406,7.633415699005127,-0.832177996635437,6.344396114349365,8.687872886657715,-38.80855178833008,-21.029356002807617
2026-04-02 13:02:22.402,1881.408601883,620211557,right_foot,右脚,D4:22:CD:00:85:22,0.8666417002677917,-0.012811118736863136,-0.49578386545181274,0.05446495860815048,-8.530844965594065,-59.085888737247004,12.033195624983222,7.823164463043213,-0.4290209114551544,6.580495357513428,5.063838005065918,-59.16305160522461,-22.153596878051758
2026-04-02 13:02:22.431,1881.437431966,620244891,right_foot,右脚,D4:22:CD:00:85:22,0.8568670749664307,-0.007572510279715061,-0.5130699276924133,0.04980764165520668,-7.709527127296384,-61.463270515838154,11.241264008377549,8.363212585449219,-0.30193009972572327,6.772205352783203,2.180053234100342,-77.7356948852539,-19.764829635620117
2026-04-02 13:02:22.461,1881.467507141,620278225,right_foot,右脚,D4:22:CD:00:85:22,0.8429808020591736,-0.0018073756946250796,-0.5361095070838928,0.04434792324900627,-6.786684970304564,-64.64872005421363,10.32034941071355,8.551651954650879,-0.7200990319252014,7.863409519195557,1.4110661745071411,-104.15367889404297,-22.626985549926758
2026-04-02 13:02:22.522,1881.528423014,620311559,right_foot,右脚,D4:22:CD:00:85:22,0.821704089641571,0.0029854155145585537,-0.5686811208724976,0.03735557571053505,-6.073674693888109,-69.19554800999603,9.397530928387239,8.744564056396484,-0.168392613530159,8.144038200378418,-5.372193336486816,-148.91848754882812,-24.71110725402832
2026-04-02 13:02:22.553,1881.559091075,620344893,right_foot,右脚,D4:22:CD:00:85:22,0.7895010113716125,0.008802857249975204,-0.6129937171936035,0.02914339490234852,-5.023884341653071,-75.56508557858605,8.123546337729056,9.077427864074707,-0.8750033378601074,9.765262603759766,-5.982372760772705,-207.4528045654297,-28.684871673583984
2026-04-02 13:02:22.582,1881.588471347,620378227,right_foot,右脚,D4:22:CD:00:85:22,0.7396100163459778,0.019648384302854538,-0.6726138591766357,0.013478201813995838,6.605700390250745,-84.54637181227639,-3.9182149204557644,11.010607719421387,-5.102964878082275,12.147018432617188,-8.042815208435059,-292.9682922363281,-59.52048110961914
2026-04-02 13:02:22.611,1881.617577187,620411561,right_foot,右脚,D4:22:CD:00:85:22,0.678600549697876,0.039526090025901794,-0.7333650588989258,-0.010720734484493732,138.6321212117733,-83.97495362940938,-136.2946756252421,12.72888469696045,-4.70820426940918,9.698555946350098,-2.818068265914917,-329.5276794433594,-108.61127471923828
2026-04-02 13:02:22.672,1881.678463247,620444895,right_foot,右脚,D4:22:CD:00:85:22,0.6326054930686951,0.046784065663814545,-0.7720984816551208,-0.03854505717754364,148.8815503339407,-76.72038349898028,-148.20944431158998,8.44073486328125,-3.1535866260528564,4.449721813201904,-44.034507751464844,-243.41720581054688,-91.32264709472656
2026-04-02 13:02:22.672,1881.678675557,620478229,right_foot,右脚,D4:22:CD:00:85:22,0.6320335268974304,0.04459083080291748,-0.772386372089386,-0.04432515799999237,147.6558630557558,-76.50616414134907,-147.63418587762914,12.909430503845215,-8.95347785949707,6.567047595977783,-18.929262161254883,-35.96974563598633,-21.69506072998047
2026-04-02 13:02:22.701,1881.707455824,620511563,right_foot,右脚,D4:22:CD:00:85:22,0.6645934581756592,0.047809407114982605,-0.745020866394043,-0.03120773285627365,136.18152867596163,-80.85443806898725,-134.83199373603708,3.1122474670410156,-1.3383359909057617,7.577142238616943,33.65301513671875,114.66939544677734,1.4420580863952637
2026-04-02 13:02:22.731,1881.737399809,620544897,right_foot,右脚,D4:22:CD:00:85:22,0.7119184732437134,0.03395703062415123,-0.7010261416435242,-0.024117043241858482,79.77607463836134,-85.2108999001312,-78.97805237018038,3.2970550060272217,-2.598987102508545,5.472659587860107,-23.584243774414062,187.91461181640625,32.78290557861328
2026-04-02 13:02:22.762,1881.768332012,620578231,right_foot,右脚,D4:22:CD:00:85:22,0.7660112380981445,0.018742021173238754,-0.6424077749252319,-0.013716433197259903,14.918188859927534,-79.63088590178434,-14.509299522498925,4.35477876663208,0.5936437249183655,5.218621253967285,-19.823013305664062,242.41432189941406,44.10369873046875
2026-04-02 13:02:22.795,1881.801368857,620611565,right_foot,右脚,D4:22:CD:00:85:22,0.8164960145950317,-0.007771000731736422,-0.5772954821586609,-0.0020486023277044296,-1.7740826562803444,-70.51869910006842,0.966770364995683,5.902999401092529,0.8092049360275269,5.973193645477295,-46.469566345214844,253.11260986328125,74.54015350341797
2026-04-02 13:02:22.852,1881.858452317,620644899,right_foot,右脚,D4:22:CD:00:85:22,0.8646922707557678,-0.03789040818810463,-0.5008084177970886,0.0079197371378541,-8.432698331013857,-59.93870391004106,5.917991000764594,9.595636367797852,0.33028048276901245,6.417047500610352,-60.31328201293945,282.9669189453125,79.16845703125
2026-04-02 13:02:22.881,1881.887372791,620678233,right_foot,右脚,D4:22:CD:00:85:22,0.9067228436470032,-0.07101279497146606,-0.41540297865867615,0.015853621065616608,-12.415401125959107,-48.68219883049406,7.637404801183727,10.380399703979492,0.10261622071266174,7.6643290519714355,-73.62466430664062,302.3702087402344,81.14044952392578
2026-04-02 13:02:22.912,1881.918346125,620711567,right_foot,右脚,D4:22:CD:00:85:22,0.9381247162818909,-0.10937435925006866,-0.32684749364852905,0.033614981919527054,-16.593199457876707,-37.29321527815503,9.738481369844715,13.492257118225098,-0.22592811286449432,9.539229393005371,-79.14257049560547,298.28082275390625,122.15756225585938
2026-04-02 13:02:22.942,1881.948346221,620744901,right_foot,右脚,D4:22:CD:00:85:22,0.957958996295929,-0.15069369971752167,-0.2376580387353897,0.05589881166815758,-20.536872456861637,-26.007327749324144,11.470409197948005,18.051376342773438,-0.2526075839996338,8.709619522094727,-89.27659606933594,291.7491455078125,143.8731231689453
2026-04-02 13:02:22.972,1881.978242509,620778235,right_foot,右脚,D4:22:CD:00:85:22,0.9697278738021851,-0.16600064933300018,-0.16580252349376678,0.06768659502267838,-21.15655772369073,-17.403226320197085,11.259916847350246,25.10364532470703,0.2947736978530884,-2.111156463623047,-20.465675354003906,239.671142578125,84.89832305908203
2026-04-02 13:02:23.001,1882.007369337,620811569,right_foot,右脚,D4:22:CD:00:85:22,0.9697474837303162,-0.18201293051242828,-0.14028772711753845,0.08234411478042603,-22.808360981634685,-14.011221886692573,12.54683076983285,24.487245559692383,6.686028957366943,-14.164458274841309,-39.07439422607422,80.71685791015625,72.77436065673828
2026-04-02 13:02:23.032,1882.038403546,620844903,right_foot,右脚,D4:22:CD:00:85:22,0.9706795811653137,-0.1419447362422943,-0.17077036201953888,0.09203609824180603,-18.808285518127658,-17.78213604819984,13.801085431084749,19.289474487304688,6.584083080291748,-12.221044540405273,130.3653564453125,-118.25531768798828,-6.162126541137695
2026-04-02 13:02:23.062,1882.068439492,620878237,right_foot,右脚,D4:22:CD:00:85:22,0.9657114148139954,-0.10828070342540741,-0.21242253482341766,0.1027316153049469,-15.918559966181078,-22.83196871864497,15.378830203794848,2.7807581424713135,2.125915050506592,13.368672370910645,103.07440948486328,-158.07037353515625,-2.882427930831909
2026-04-02 13:02:23.092,1882.098168358,620911571,right_foot,右脚,D4:22:CD:00:85:22,0.9529165029525757,-0.08959006518125534,-0.2693505585193634,0.10665030032396317,-15.218213696574416,-29.61882012476799,16.817563022537588,15.772354125976562,2.785207986831665,9.495562553405762,40.00077438354492,-207.23577880859375,-17.490081787109375
2026-04-02 13:02:23.152,1882.158417672,620944905,right_foot,右脚,D4:22:CD:00:85:22,0.9466157555580139,-0.07867306470870972,-0.29621633887290955,0.09992611408233643,-14.375210106529412,-33.03033693195778,16.334592005406275,15.38548469543457,-2.925130605697632,3.600743532180786,17.731151580810547,-96.40423583984375,-38.264583587646484
2026-04-02 13:02:23.182,1882.188410818,620978239,right_foot,右脚,D4:22:CD:00:85:22,0.9428493976593018,-0.07158614695072174,-0.3108595907688141,0.09631545841693878,-13.748156096002283,-34.91760837665463,16.008172537147786,7.8677473068237305,0.6818566918373108,6.681389331817627,13.350743293762207,-53.62299346923828,-21.831214904785156
2026-04-02 13:02:23.212,1882.218373848,621011573,right_foot,右脚,D4:22:CD:00:85:22,0.9394909739494324,-0.06944835931062698,-0.3213636577129364,0.0962253212928772,-13.787445326115954,-36.19043651692069,16.220677964821117,7.605024337768555,0.34826380014419556,6.2147979736328125,2.5352675914764404,-39.08704376220703,-4.263774871826172
2026-04-02 13:02:23.241,1882.247346884,621044907,right_foot,右脚,D4:22:CD:00:85:22,0.936850905418396,-0.06951974332332611,-0.32864946126937866,0.09729767590761185,-14.080435789288522,-37.03213985611928,16.595334729143318,7.592488765716553,-1.209791898727417,5.83878231048584,-2.0686447620391846,-27.487483978271484,2.447194814682007
2026-04-02 13:02:23.272,1882.278488747,621078241,right_foot,右脚,D4:22:CD:00:85:22,0.9352643489837646,-0.06802031397819519,-0.3330475986003876,0.09865858405828476,-14.08697992683708,-37.55720925812244,16.854599089256045,7.519713878631592,-1.7754672765731812,5.583401679992676,4.553220272064209,-17.611568450927734,1.9213424921035767
2026-04-02 13:02:23.302,1882.308385865,621111575,right_foot,右脚,D4:22:CD:00:85:22,0.9343645572662354,-0.06619831174612045,-0.3354071080684662,0.10041304677724838,-14.001420810520884,-37.84232982527602,17.088409952578168,7.518649578094482,-0.8051705360412598,5.757570266723633,6.902730941772461,-10.477885246276855,3.051468849182129
2026-04-02 13:02:23.332,1882.338396932,621144909,right_foot,右脚,D4:22:CD:00:85:22,0.9332637190818787,-0.06505497545003891,-0.3381099998950958,0.10231566429138184,-14.028468537381722,-38.154139966095656,17.38589092426541,7.41658878326416,-1.051666021347046,5.61193323135376,4.727081775665283,-11.614209175109863,4.303248405456543
2026-04-02 13:02:23.362,1882.368525152,621178243,right_foot,右脚,D4:22:CD:00:85:22,0.9319239854812622,-0.06371515989303589,-0.34154975414276123,0.10393258929252625,-14.044031772968655,-38.56137142780979,17.661732383795265,7.315195083618164,-1.1705331802368164,5.545351982116699,4.71474027633667,-14.259756088256836,3.0761046409606934
2026-04-02 13:02:23.392,1882.398617345,621211577,right_foot,右脚,D4:22:CD:00:85:22,0.9303954839706421,-0.061064720153808594,-0.34596556425094604,0.10461189597845078,-13.873119958688212,-39.12342999983083,17.781264808792436,7.300685405731201,-1.4600398540496826,5.543421268463135,7.426214694976807,-17.86903190612793,-1.6149853467941284
2026-04-02 13:02:23.452,1882.458528995,621244911,right_foot,右脚,D4:22:CD:00:85:22,0.9286442995071411,-0.057096149772405624,-0.3514237105846405,0.10421951115131378,-13.505779961105446,-39.851039788061854,17.722354421414,7.433750152587891,-1.2151027917861938,5.585539817810059,9.949252128601074,-21.714088439941406,-6.751917839050293
2026-04-02 13:02:23.482,1882.488575058,621278245,right_foot,右脚,D4:22:CD:00:85:22,0.9261729717254639,-0.05276969075202942,-0.3587280809879303,0.1036033183336258,-13.141246932661746,-40.81009354655282,17.67238835544644,7.434003829956055,-0.9538174271583557,5.696876525878906,10.017234802246094,-28.572677612304688,-8.004250526428223
2026-04-02 13:02:23.543,1882.549351571,621311579,right_foot,右脚,D4:22:CD:00:85:22,0.9226398468017578,-0.04838758707046509,-0.3687231242656708,0.10216714441776276,-12.820934593932467,-42.106416384849254,17.590410258421468,7.510339736938477,-1.0244426727294922,5.905814170837402,8.030948638916016,-38.332984924316406,-10.796259880065918
2026-04-02 13:02:23.543,1882.549519874,621344913,right_foot,右脚,D4:22:CD:00:85:22,0.9178890585899353,-0.044736552983522415,-0.3814832866191864,0.09974712878465652,-12.65089344648616,-43.74051956375699,17.49937703787702,7.62764835357666,-0.9830370545387268,6.155646324157715,3.289379119873047,-48.23526382446289,-13.02221965789795
2026-04-02 13:02:23.572,1882.578526654,621378247,right_foot,右脚,D4:22:CD:00:85:22,0.9107845425605774,-0.04177076742053032,-0.39932334423065186,0.0962720587849617,-12.722011167977325,-46.00099168643913,17.486343149071093,7.828110218048096,-0.4919814169406891,6.91480827331543,-2.362461566925049,-66.97023010253906,-15.428504943847656
2026-04-02 13:02:23.601,1882.607267932,621411581,right_foot,右脚,D4:22:CD:00:85:22,0.9008192420005798,-0.03980683162808418,-0.4223631024360657,0.09246858954429626,-13.175022258069005,-48.901723160461174,17.733282692911747,8.45898723602295,-0.6100704073905945,7.356197357177734,-8.091010093688965,-86.82044219970703,-14.875523567199707
2026-04-02 13:02:23.632,1882.638449584,621444915,right_foot,右脚,D4:22:CD:00:85:22,0.8863059282302856,-0.03700491413474083,-0.4531443119049072,0.08805549144744873,-13.921578081905473,-52.81907258710436,18.28690272595681,8.476914405822754,-1.228355884552002,7.936496257781982,-9.467660903930664,-117.61177062988281,-17.593786239624023
2026-04-02 13:02:23.663,1882.669346412,621478249,right_foot,右脚,D4:22:CD:00:85:22,0.8630203604698181,-0.030991416424512863,-0.49770215153694153,0.08080165833234787,-14.918510717665972,-58.65439598138571,19.111346371677627,8.797240257263184,-1.4754786491394043,9.472792625427246,-9.3927640914917,-173.95375061035156,-30.368165969848633
2026-04-02 13:02:23.692,1882.698543792,621511583,right_foot,右脚,D4:22:CD:00:85:22,0.8251487016677856,-0.020252151414752007,-0.5600327849388123,0.07130058109760284,-16.940797867848307,-67.12155459918374,21.161958104202,9.619098663330078,-2.3862342834472656,11.932197570800781,-5.710120677947998,-252.9417724609375,-42.999351501464844
2026-04-02 13:02:23.752,1882.758555486,621544917,right_foot,右脚,D4:22:CD:00:85:22,0.7652330994606018,-0.004310688469558954,-0.6416811347007751,0.051438283175230026,-22.367265109455076,-78.99993886659865,26.204319220486408,12.725944519042969,-5.5146355628967285,13.32939338684082,-17.19234275817871,-351.263916015625,-78.47957611083984
2026-04-02 13:02:23.782,1882.788443296,621578251,right_foot,右脚,D4:22:CD:00:85:22,0.7020509839057922,0.01578662544488907,-0.711458146572113,0.02652732841670513,-129.49858930044059,-88.84306755735331,132.92790873472217,10.978340148925781,-2.8049209117889404,8.513275146484375,-15.329278945922852,-327.9222412109375,-100.29554748535156
2026-04-02 13:02:23.812,1882.818527371,621611585,right_foot,右脚,D4:22:CD:00:85:22,0.6707131266593933,0.015139592811465263,-0.7414327263832092,0.013901191763579845,-179.82510642522678,-84.26643156721555,-177.8186498785468,13.455167770385742,-7.545145511627197,5.286844253540039,-33.43776321411133,-150.97500610351562,-24.82510757446289
2026-04-02 13:02:23.842,1882.848395197,621644919,right_foot,右脚,D4:22:CD:00:85:22,0.6852952837944031,0.03549620136618614,-0.7266098856925964,0.033901114016771317,-179.39708430703863,-86.64937094458224,-174.97509305687765,3.1791040897369385,-4.635076999664307,8.19965648651123,97.92676544189453,70.05070495605469,-7.80422306060791
2026-04-02 13:02:23.875,1882.881376773,621678253,right_foot,右脚,D4:22:CD:00:85:22,0.7153333425521851,0.02868039347231388,-0.6975102424621582,0.030921049416065216,-4.749811885332316,-88.54441548368348,9.581043859874214,1.5846915245056152,0.9848070740699768,6.632380485534668,-23.7215518951416,142.6014862060547,2.44252872467041
2026-04-02 13:02:23.902,1882.908645048,621711587,right_foot,右脚,D4:22:CD:00:85:22,0.7611134052276611,0.024650871753692627,-0.6476036906242371,0.026631664484739304,1.085124386299793,-80.791177608115,3.0845928209038562,4.530192852020264,-3.0953121185302734,3.913416624069214,-19.334903717041016,231.22862243652344,-11.162376403808594
2026-04-02 13:02:23.932,1882.938653835,621744921,right_foot,右脚,D4:22:CD:00:85:22,0.8109713792800903,0.014478595927357674,-0.5841169357299805,0.030404824763536453,-2.1731286978232185,-71.4927472173487,5.858549654498361,5.472783088684082,0.14561130106449127,4.822282791137695,-16.54256820678711,277.2557373046875,22.119935989379883
2026-04-02 13:02:23.962,1882.968631371,621778255,right_foot,右脚,D4:22:CD:00:85:22,0.8565149903297424,-0.007815771736204624,-0.5146352648735046,0.03837136551737785,-6.4173361135415385,-61.76142479283645,8.970545494444705,8.4667329788208,-0.9388684034347534,5.386828899383545,-41.10573196411133,286.8653564453125,58.39134979248047
2026-04-02 13:02:23.992,1882.998364464,621811589,right_foot,右脚,D4:22:CD:00:85:22,0.8977740406990051,-0.03814585506916046,-0.43613362312316895,0.048321884125471115,-10.171797462857624,-51.20673798819386,11.045969225652495,11.183613777160645,-1.884399652481079,6.279908180236816,-60.2183837890625,307.0215759277344,79.31736755371094
2026-04-02 13:02:24.052,1883.058672908,621844923,right_foot,右脚,D4:22:CD:00:85:22,0.9299247860908508,-0.06954273581504822,-0.3546825349330902,0.06786251068115234,-13.50917009564911,-40.55793553530755,13.35928810084849,12.29629135131836,-1.4829175472259521,8.280374526977539,-49.81637954711914,301.4991149902344,112.48460388183594
2026-04-02 13:02:24.082,1883.088682186,621878257,right_foot,右脚,D4:22:CD:00:85:22,0.9502373933792114,-0.11019634455442429,-0.2746104300022125,0.09744652360677719,-17.680340247281833,-30.02733893378368,16.48756424182507,16.716697692871094,0.48830610513687134,10.003083229064941,-70.38542175292969,282.54388427734375,158.45364379882812
2026-04-02 13:02:24.112,1883.118387912,621911591,right_foot,右脚,D4:22:CD:00:85:22,0.9622719287872314,-0.15017154812812805,-0.1924220621585846,0.12023253738880157,-20.838686196787624,-19.524711937529684,17.86821137028113,23.617815017700195,-1.441184639930725,3.132814645767212,-77.07832336425781,284.2925720214844,139.28675842285156
2026-04-02 13:02:24.142,1883.148680096,621944925,right_foot,右脚,D4:22:CD:00:85:22,0.9668373465538025,-0.1797734797000885,-0.13422322273254395,0.12203472852706909,-22.92650026703726,-12.454635345493415,16.922907949539166,23.17949867248535,5.589966773986816,-7.543724536895752,-70.33761596679688,206.84622192382812,53.768768310546875
2026-04-02 13:02:24.172,1883.178666096,621978259,right_foot,右脚,D4:22:CD:00:85:22,0.9655500054359436,-0.189286008477211,-0.13734431564807892,0.11411162465810776,-24.01866831001044,-12.828053829295987,16.220054964152133,22.776403427124023,4.645569801330566,-18.17557144165039,-37.43152618408203,-1.6732336282730103,-23.00982093811035
2026-04-02 13:02:24.202,1883.208675316,622011593,right_foot,右脚,D4:22:CD:00:85:22,0.9686742424964905,-0.1408224254846573,-0.17329606413841248,0.10866761952638626,-19.028192213616535,-17.765919654077962,15.802455073439173,9.843101501464844,-1.1206626892089844,5.722141265869141,146.31787109375,-132.5159149169922,-65.1836929321289
2026-04-02 13:02:24.232,1883.238452575,622044927,right_foot,右脚,D4:22:CD:00:85:22,0.961128830909729,-0.10497001558542252,-0.22667258977890015,0.1176140233874321,-16.250054043217155,-24.26960948380311,17.469821774018452,3.087815046310425,5.007997035980225,10.298782348632812,101.17732238769531,-199.4302978515625,-14.36320686340332
2026-04-02 13:02:24.262,1883.268621458,622078261,right_foot,右脚,D4:22:CD:00:85:22,0.9510502815246582,-0.08754214644432068,-0.27474313974380493,0.11116163432598114,-15.26927738865728,-30.20702679012786,17.477038497190765,22.001110076904297,-1.3167954683303833,5.6357316970825195,29.2926025390625,-170.9101104736328,-47.92756271362305
2026-04-02 13:02:24.292,1883.29862142,622111595,right_foot,右脚,D4:22:CD:00:85:22,0.946567714214325,-0.07371136546134949,-0.29538384079933167,0.10642164200544357,-13.954018800827944,-32.92304503881724,16.971411241772795,9.648239135742188,1.4049333333969116,6.748968601226807,31.382905960083008,-74.73249816894531,-32.780399322509766
2026-04-02 13:02:24.352,1883.3583523,622144929,right_foot,右脚,D4:22:CD:00:85:22,0.9426859021186829,-0.06987106800079346,-0.30864930152893066,0.1058187410235405,-13.842398005129596,-34.550401022180885,17.13341648710142,8.467769622802734,1.0528099536895752,6.014716625213623,5.855228900909424,-47.64690399169922,-7.51744270324707
2026-04-02 13:02:24.382,1883.388479422,622178263,right_foot,右脚,D4:22:CD:00:85:22,0.9402881264686584,-0.07023118436336517,-0.3152063488960266,0.10757248848676682,-14.174724696454863,-35.28606225892443,17.58193776493148,7.102127552032471,-0.937626838684082,6.126633167266846,-2.4705636501312256,-23.475086212158203,5.643993854522705
2026-04-02 13:02:24.412,1883.418628965,622211597,right_foot,右脚,D4:22:CD:00:85:22,0.9365347623825073,-0.07236379384994507,-0.3249671757221222,0.10983243584632874,-14.888398913825954,-36.35523961309446,18.290952693397244,7.350783824920654,-1.1098681688308716,6.186425685882568,-9.13239860534668,-34.90083694458008,8.893238067626953
2026-04-02 13:02:24.442,1883.448439945,622244931,right_foot,右脚,D4:22:CD:00:85:22,0.9339973330497742,-0.07218760251998901,-0.331844300031662,0.11098609119653702,-15.164065264265938,-37.14680748484569,18.6752373761299,7.2836103439331055,-1.8543977737426758,5.572106838226318,-1.5035429000854492,-24.936485290527344,2.976917028427124
2026-04-02 13:02:24.472,1883.478570016,622278265,right_foot,右脚,D4:22:CD:00:85:22,0.9318015575408936,-0.0703754872083664,-0.33821243047714233,0.11138319969177246,-15.175346548381386,-37.924023778615584,18.874129142447757,7.065487384796143,-1.5018196105957031,6.057060718536377,3.1980299949645996,-23.41905403137207,-1.3607685565948486
2026-04-02 13:02:24.502,1883.508534096,622311599,right_foot,右脚,D4:22:CD:00:85:22,0.9295835494995117,-0.06867808103561401,-0.3446132242679596,0.11135541647672653,-15.18822283656497,-38.711395808410295,19.024863299808043,7.516763687133789,-1.1322630643844604,5.537453651428223,2.3329477310180664,-23.455371856689453,-2.60957670211792
2026-04-02 13:02:24.532,1883.538552178,622344933,right_foot,右脚,D4:22:CD:00:85:22,0.9273079633712769,-0.06688442826271057,-0.35112565755844116,0.11107507348060608,-15.184099925812557,-39.519778161991695,19.143522986004584,7.461977958679199,-1.1720138788223267,5.413472652435303,2.2901687622070312,-23.877046585083008,-3.5409464836120605
2026-04-02 13:02:24.562,1883.568395946,622378267,right_foot,右脚,D4:22:CD:00:85:22,0.9253310561180115,-0.06415027379989624,-0.3571101129055023,0.11008996516466141,-14.996147799544906,-40.29816764874716,19.099299633087206,7.2702507972717285,-1.573681116104126,5.449826240539551,4.712289810180664,-22.04432487487793,-6.921130657196045
2026-04-02 13:02:24.592,1883.598614628,622411601,right_foot,右脚,D4:22:CD:00:85:22,0.9241505265235901,-0.06061550974845886,-0.36127734184265137,0.10839976370334625,-14.584638793231784,-40.889910826952935,18.842483296571533,7.805908203125,-1.050087571144104,5.098237037658691,7.274338722229004,-15.484162330627441,-10.079461097717285
2026-04-02 13:02:24.652,1883.658438341,622444935,right_foot,右脚,D4:22:CD:00:85:22,0.9242826104164124,-0.05606614798307419,-0.3621249794960022,0.10688258707523346,-13.902765859813023,-41.10390150031928,18.42707755121366,7.5467305183410645,-1.4942933320999146,5.25154972076416,12.233681678771973,-3.8329873085021973,-10.632347106933594
2026-04-02 13:02:24.682,1883.688303768,622478269,right_foot,右脚,D4:22:CD:00:85:22,0.9233180284500122,-0.050247613340616226,-0.36594071984291077,0.10510312765836716,-13.13772028493989,-41.69742340391598,18.01043476122553,7.152886390686035,-1.5885486602783203,6.210414886474609,14.659324645996094,-15.191363334655762,-13.278899192810059
2026-04-02 13:02:24.712,1883.718490633,622511603,right_foot,右脚,D4:22:CD:00:85:22,0.9196191430091858,-0.042486414313316345,-0.3769049644470215,0.10216838121414185,-12.289022400511252,-43.19915631229539,17.56021261031249,7.570003986358643,-1.4241523742675781,6.406204700469971,16.334596633911133,-41.97017288208008,-19.692655563354492
2026-04-02 13:02:24.742,1883.748411233,622544937,right_foot,右脚,D4:22:CD:00:85:22,0.9123371243476868,-0.0352170467376709,-0.39613109827041626,0.0973706990480423,-11.685489824557427,-45.72126328065516,17.12462410420101,7.50082540512085,-0.21527881920337677,7.518916606903076,8.944445610046387,-72.40157318115234,-24.92510414123535
2026-04-02 13:02:24.772,1883.778446927,622578271,right_foot,右脚,D4:22:CD:00:85:22,0.9018054604530334,-0.0311950221657753,-0.4209996461868286,0.09237530827522278,-11.76539061550222,-48.899370639861075,17.061523690001177,8.430509567260742,0.01687803864479065,8.004250526428223,-3.814544916152954,-93.52885437011719,-20.7159423828125
2026-04-02 13:02:24.802,1883.808221086,622611605,right_foot,右脚,D4:22:CD:00:85:22,0.886411190032959,-0.030289966613054276,-0.4533328115940094,0.08858369290828705,-12.857401704943705,-52.969227281958794,17.840262767877977,8.548766136169434,0.4768308401107788,8.305326461791992,-14.64500617980957,-122.94451141357422,-11.716645240783691
2026-04-02 13:02:24.832,1883.838410575,622644939,right_foot,右脚,D4:22:CD:00:85:22,0.8615527153015137,-0.02860397659242153,-0.499729186296463,0.08473391085863113,-15.03153667854526,-58.89680830243062,19.753832040899717,8.232037544250488,-0.6092140674591064,9.073473930358887,-17.63880729675293,-180.93826293945312,-11.682706832885742
2026-04-02 13:02:24.862,1883.868446031,622678273,right_foot,右脚,D4:22:CD:00:85:22,0.822853147983551,-0.01987355947494507,-0.5625554919242859,0.07777681946754456,-18.17023573079649,-67.32547003209996,22.956812886047203,9.06546401977539,-3.2778425216674805,10.760010719299316,-8.24303913116455,-255.4203338623047,-30.622661590576172
2026-04-02 13:02:24.891,1883.897444221,622711607,right_foot,右脚,D4:22:CD:00:85:22,0.7640671133995056,-0.00036737252958118916,-0.6421021819114685,0.06249934062361717,-24.73881704311497,-78.86424562512443,29.798784655124283,12.337008476257324,-6.598268032073975,13.278417587280273,0.34029123187065125,-344.4472351074219,-70.94729614257812
2026-04-02 13:02:24.952,1883.958491836,622744941,right_foot,右脚,D4:22:CD:00:85:22,0.695659339427948,0.031732406467199326,-0.7166742086410522,0.03780890628695488,-161.0537609691796,-88.22737078943693,166.69153457707185,13.290937423706055,-5.7312726974487305,11.469581604003906,13.752212524414062,-355.6963806152344,-121.7126235961914
2026-04-02 13:02:24.982,1883.988434743,622778275,right_foot,右脚,D4:22:CD:00:85:22,0.6548394560813904,0.03575057536363602,-0.7547369003295898,0.016717351973056793,171.34456487758357,-81.7527360157692,-167.08115117401277,13.815093994140625,-5.006597518920898,6.684279441833496,-42.85952377319336,-195.99668884277344,-51.37250518798828
2026-04-02 13:02:25.012,1884.018443069,622811609,right_foot,右脚,D4:22:CD:00:85:22,0.6755515933036804,0.06326527893543243,-0.7334527373313904,0.04092293977737427,163.12888844135202,-84.9695757221881,-154.67085812714703,4.732431411743164,-12.753019332885742,10.357787132263184,123.4776382446289,101.43051147460938,-21.407949447631836
2026-04-02 13:02:25.042,1884.048317861,622844943,right_foot,右脚,D4:22:CD:00:85:22,0.7150945067405701,0.07078878581523895,-0.693981945514679,0.044920071959495544,55.47506172707151,-87.29416122992471,-46.08623456768,0.7625610828399658,2.2930212020874023,10.838876724243164,24.588157653808594,189.35995483398438,-24.63791847229004
2026-04-02 13:02:25.072,1884.078453393,622878277,right_foot,右脚,D4:22:CD:00:85:22,0.7702641487121582,0.06122998148202896,-0.6337903738021851,0.03540937229990959,14.651016729483656,-78.72738642374023,-6.776239670823237,4.177180767059326,-5.194169521331787,6.220427513122559,-50.212886810302734,277.0169982910156,-24.48027229309082
2026-04-02 13:02:25.102,1884.108372662,622911611,right_foot,右脚,D4:22:CD:00:85:22,0.8267838358879089,0.044748593121767044,-0.5593924522399902,0.0388110876083374,4.721716327768947,-68.19703469035886,2.177594636946491,5.927643299102783,-0.62566739320755,6.4435529708862305,-38.86996078491211,321.3556213378906,21.652896881103516
2026-04-02 13:02:25.132,1884.138294256,622944945,right_foot,右脚,D4:22:CD:00:85:22,0.8753210306167603,0.011026334017515182,-0.48051637411117554,0.05287408456206322,-3.352191567304846,-57.39209665161184,8.748881597167857,10.452875137329102,-2.5806562900543213,6.54993200302124,-65.57493591308594,322.8465576171875,85.67656707763672
2026-04-02 13:02:25.162,1884.168378586,622978279,right_foot,右脚,D4:22:CD:00:85:22,0.915189802646637,-0.025102198123931885,-0.3948112726211548,0.07695077359676361,-8.829099350979572,-45.95478089008616,13.362156396555307,12.977519989013672,-3.1981451511383057,7.830357551574707,-54.67847442626953,330.18231201171875,121.21232604980469
2026-04-02 13:02:25.192,1884.198386086,623011613,right_foot,右脚,D4:22:CD:00:85:22,0.9425418376922607,-0.06743883341550827,-0.3084726929664612,0.10914015769958496,-13.652552056568078,-34.52572618160878,17.470933773724575,14.533459663391113,-1.7566919326782227,9.652326583862305,-64.13843536376953,316.3792419433594,158.6810302734375
2026-04-02 13:02:25.252,1884.258380494,623044947,right_foot,右脚,D4:22:CD:00:85:22,0.9563261866569519,-0.12438391894102097,-0.2272290140390396,0.13541053235530853,-19.07839607439316,-23.635971081831848,20.145959518177836,20.642051696777344,0.4356655478477478,8.128963470458984,-122.98819732666016,292.6142578125,159.0501708984375
2026-04-02 13:02:25.282,1884.28833811,623078281,right_foot,右脚,D4:22:CD:00:85:22,0.9607300162315369,-0.17755226790905,-0.15113888680934906,0.15043328702449799,-23.451289563626215,-13.70882356010993,20.656904112202504,27.53435516357422,0.8430203795433044,-2.7676618099212646,-125.8189697265625,271.9163513183594,121.47050476074219
2026-04-02 13:02:25.315,1884.321603499,623111615,right_foot,右脚,D4:22:CD:00:85:22,0.9589089155197144,-0.20356440544128418,-0.11782167106866837,0.1586609184741974,-25.68781965475903,-9.286138595647422,20.91171250103648,26.6086483001709,7.879587650299072,-14.972090721130371,-65.40664672851562,117.9599609375,62.26400375366211
2026-04-02 13:02:25.342,1884.348510958,623144949,right_foot,右脚,D4:22:CD:00:85:22,0.9618578553199768,-0.16373085975646973,-0.14340494573116302,0.16570064425468445,-21.822927065301762,-12.803597608674472,22.02715038432111,21.199588775634766,5.737389087677002,-16.515380859375,122.44966888427734,-108.67831420898438,-11.84967041015625
2026-04-02 13:02:25.373,1884.379313134,623178283,right_foot,右脚,D4:22:CD:00:85:22,0.9624118208885193,-0.10552890598773956,-0.180122971534729,0.1737322360277176,-16.22932331320627,-18.061484205939607,23.061729926607807,3.320695400238037,3.7462821006774902,15.199763298034668,176.0570526123047,-157.4763641357422,-22.644075393676758
2026-04-02 13:02:25.402,1884.408540809,623211617,right_foot,右脚,D4:22:CD:00:85:22,0.9521682858467102,-0.07591595500707626,-0.24200327694416046,0.1704311966896057,-14.60564320482053,-25.783943142760027,23.656367989589754,14.294858932495117,7.2276763916015625,11.604646682739258,55.10481262207031,-226.68093872070312,-45.26689910888672
2026-04-02 13:02:25.432,1884.438523284,623244951,right_foot,右脚,D4:22:CD:00:85:22,0.9420953989028931,-0.0571666918694973,-0.28458836674690247,0.16792160272598267,-13.738782323208486,-31.132553690902004,24.05705585770537,18.186052322387695,-3.75341796875,4.915955543518066,31.43276023864746,-156.98587036132812,-28.600330352783203
2026-04-02 13:02:25.462,1884.468624749,623278285,right_foot,右脚,D4:22:CD:00:85:22,0.9359224438667297,-0.04572005942463875,-0.3082786202430725,0.16408276557922363,-13.048983121283968,-34.197411260566824,23.91754127079928,9.039214134216309,0.4365372657775879,5.90587043762207,18.226577758789062,-87.35375213623047,-24.314977645874023
2026-04-02 13:02:25.492,1884.498292696,623311619,right_foot,右脚,D4:22:CD:00:85:22,0.9324178695678711,-0.03909624367952347,-0.32072722911834717,0.1618715226650238,-12.592045519018132,-35.83453906699427,23.783289615830345,8.7997465133667,0.7919595837593079,5.713212966918945,11.193086624145508,-46.03340148925781,-13.740180015563965
2026-04-02 13:02:25.552,1884.558421556,623344953,right_foot,右脚,D4:22:CD:00:85:22,0.9298751950263977,-0.03916994482278824,-0.3281192481517792,0.16166438162326813,-12.894767236499447,-36.69500622225399,24.017802020038086,7.463599681854248,-0.41713523864746094,6.615508079528809,-5.135350227355957,-25.460241317749023,0.1962367743253708
2026-04-02 13:02:25.582,1884.588399913,623378287,right_foot,右脚,D4:22:CD:00:85:22,0.9275332093238831,-0.04040677472949028,-0.33451494574546814,0.16170772910118103,-13.330228577834479,-37.40745108999442,24.31039467529433,7.318666934967041,-1.4396203756332397,5.596715450286865,-7.966614723205566,-21.6047306060791,2.2940924167633057
2026-04-02 13:02:25.612,1884.618332147,623411621,right_foot,右脚,D4:22:CD:00:85:22,0.9256110787391663,-0.03909469395875931,-0.340352326631546,0.1608593910932541,-13.368766539959076,-38.13310436737734,24.356774159259395,7.245092868804932,-1.7984719276428223,5.453404903411865,-0.45023566484451294,-20.764667510986328,-3.690403699874878
2026-04-02 13:02:25.642,1884.648381509,623444955,right_foot,右脚,D4:22:CD:00:85:22,0.9236156940460205,-0.03609170764684677,-0.34683433175086975,0.15917745232582092,-13.169765809224245,-38.99062656888372,24.237264262825775,7.139705657958984,-0.9766228199005127,5.745094299316406,3.626807451248169,-23.869813919067383,-8.429511070251465
2026-04-02 13:02:25.672,1884.678438101,623478289,right_foot,右脚,D4:22:CD:00:85:22,0.9215517640113831,-0.03157977759838104,-0.35378122329711914,0.15679281949996948,-12.747235204593572,-39.95250686194795,23.961968341621994,7.1870012283325195,-1.6646826267242432,5.516122341156006,7.333434104919434,-26.307039260864258,-12.526823043823242
2026-04-02 13:02:25.702,1884.708468208,623511623,right_foot,右脚,D4:22:CD:00:85:22,0.919758141040802,-0.024676820263266563,-0.360272616147995,0.1537519097328186,-11.930201207327137,-40.930200574417626,23.446398746247233,7.102712631225586,-1.6771819591522217,5.6614203453063965,14.411703109741211,-25.86777114868164,-17.66695785522461
2026-04-02 13:02:25.732,1884.738394685,623544957,right_foot,右脚,D4:22:CD:00:85:22,0.9169015884399414,-0.0155101977288723,-0.36939045786857605,0.1503385752439499,-10.868435307912453,-42.2777916002187,22.8361527614177,7.30675745010376,-1.7569615840911865,6.049463748931885,19.651201248168945,-36.759769439697266,-21.360429763793945
2026-04-02 13:02:25.762,1884.768369042,623578291,right_foot,右脚,D4:22:CD:00:85:22,0.9111528396606445,-0.0019624438136816025,-0.3857440650463104,0.14490769803524017,-9.327729540642595,-44.61784664537487,21.90734618380012,7.43507194519043,-1.598308801651001,7.263078689575195,27.02891731262207,-65.49331665039062,-32.22874069213867
2026-04-02 13:02:25.792,1884.79848707,623611625,right_foot,右脚,D4:22:CD:00:85:22,0.9002042412757874,0.008448485285043716,-0.41332101821899414,0.13684587180614471,-8.461240278759316,-48.28455796492512,21.085357040402872,7.895208835601807,1.0704632997512817,9.757078170776367,8.077983856201172,-106.10192108154297,-33.81724548339844
2026-04-02 13:02:25.852,1884.858326965,623644959,right_foot,右脚,D4:22:CD:00:85:22,0.8815215229988098,0.0140818627551198,-0.4538317918777466,0.12945394217967987,-8.961459257615287,-53.49171103221917,21.231680887751292,8.617337226867676,0.8235803842544556,10.826680183410645,-11.671281814575195,-155.06077575683594,-20.901782989501953
2026-04-02 13:02:25.882,1884.888411411,623678293,right_foot,右脚,D4:22:CD:00:85:22,0.8477771282196045,0.021875031292438507,-0.5161368250846863,0.11999258399009705,-10.542861665660705,-61.689161709989925,22.419403106020848,7.761258602142334,-1.5054588317871094,12.504548072814941,-17.34927749633789,-246.0454864501953,-22.772193908691406
2026-04-02 13:02:25.942,1884.948378017,623711627,right_foot,右脚,D4:22:CD:00:85:22,0.7917807698249817,0.044695980846881866,-0.6010482907295227,0.0991288498044014,-10.032619899970992,-73.87502611060101,21.823661308321128,9.916122436523438,-6.355815887451172,15.5090970993042,-1.3709529638290405,-359.2666015625,-71.9970932006836
2026-04-02 13:02:25.942,1884.948502653,623744961,right_foot,右脚,D4:22:CD:00:85:22,0.7099695205688477,0.08244452625513077,-0.6969350576400757,0.05854625627398491,67.11401119009645,-87.79412573353758,-55.668606345454116,16.29385757446289,-9.952895164489746,18.77032470703125,-1.1775802373886108,-451.8340148925781,-146.6234130859375
2026-04-02 13:02:25.972,1884.978345125,623778295,right_foot,右脚,D4:22:CD:00:85:22,0.6445415019989014,0.11170193552970886,-0.7559974193572998,0.023594943806529045,147.19113231822965,-78.46843866003121,-136.1554375625872,11.791178703308105,-8.131656646728516,11.529329299926758,-5.609072685241699,-319.1051025390625,-126.37525939941406
2026-04-02 13:02:26.002,1885.008422871,623811629,right_foot,右脚,D4:22:CD:00:85:22,0.6563915014266968,0.12497647851705551,-0.7427946925163269,0.04227633774280548,143.07102297421287,-80.29718086412221,-129.43791931635224,11.599868774414062,-14.262007713317871,15.432491302490234,74.57525634765625,63.863712310791016,-0.1636553704738617
2026-04-02 13:02:26.032,1885.038472165,623844963,right_foot,右脚,D4:22:CD:00:85:22,0.696662187576294,0.12357772886753082,-0.703936755657196,0.062157828360795975,104.30864524814575,-84.98685564845502,-89.200634919602,0.9101776480674744,1.8552087545394897,12.857224464416504,36.144927978515625,196.5690460205078,24.63547706604004
2026-04-02 13:02:26.062,1885.068445071,623878297,right_foot,右脚,D4:22:CD:00:85:22,0.7584250569343567,0.0937776044011116,-0.6421102285385132,0.06075996905565262,22.14400198268961,-80.19084812383025,-9.550708188768859,3.11970853805542,-2.2322068214416504,7.283649444580078,-87.60671997070312,300.71868896484375,28.220550537109375
2026-04-02 13:02:26.092,1885.098351857,623911631,right_foot,右脚,D4:22:CD:00:85:22,0.8229612708091736,0.056526366621255875,-0.5618817806243896,0.06187308579683304,3.7135018659182295,-68.71856909425856,6.059926140963069,5.701504230499268,0.8563089370727539,6.571564674377441,-98.49910736083984,357.55078125,44.753074645996094
2026-04-02 13:02:26.152,1885.158418751,623944965,right_foot,右脚,D4:22:CD:00:85:22,0.8754265308380127,0.009874813258647919,-0.4782477915287018,0.06935450434684753,-5.16741516120568,-57.00427837819731,11.866711254379648,9.273128509521484,0.6514363884925842,7.58711576461792,-109.7179183959961,347.2608947753906,83.02330017089844
2026-04-02 13:02:26.183,1885.18928595,623978299,right_foot,右脚,D4:22:CD:00:85:22,0.917434573173523,-0.038711026310920715,-0.38521087169647217,0.09180382639169693,-11.44454064136664,-44.4032474033427,16.112442586582976,14.668838500976562,-1.7794520854949951,9.457084655761719,-88.35713958740234,359.7319641113281,133.66616821289062
2026-04-02 13:02:26.212,1885.218379022,624011633,right_foot,右脚,D4:22:CD:00:85:22,0.9463492631912231,-0.09215056896209717,-0.28281986713409424,0.1262713223695755,-16.63053435925648,-30.798521899923905,19.810687842361702,18.49609375,-0.055738046765327454,10.805207252502441,-86.64419555664062,372.4073486328125,183.6864471435547
2026-04-02 13:02:26.242,1885.248325845,624044967,right_foot,右脚,D4:22:CD:00:85:22,0.9586580991744995,-0.15717710554599762,-0.18595923483371735,0.14727279543876648,-22.000625378062608,-18.07410422331583,21.009095739346197,28.08464813232422,0.6476115584373474,3.151297092437744,-145.36813354492188,348.1639099121094,156.7816925048828
2026-04-02 13:02:26.271,1885.277353966,624078301,right_foot,右脚,D4:22:CD:00:85:22,0.958124577999115,-0.1964406967163086,-0.12041860073804855,0.17002326250076294,-25.030618255672792,-9.436419399140485,22.224416455382624,34.01829528808594,5.698124408721924,-11.402042388916016,-81.95608520507812,223.44241333007812,135.97242736816406
2026-04-02 13:02:26.303,1885.309103454,624111635,right_foot,右脚,D4:22:CD:00:85:22,0.9553079009056091,-0.19609948992729187,-0.11625131219625473,0.18819576501846313,-25.03079477779266,-8.528501626013544,24.18559301545282,33.1259651184082,9.096806526184082,-24.355127334594727,9.300539016723633,1.468199610710144,64.91643524169922
2026-04-02 13:02:26.332,1885.338435433,624144969,right_foot,右脚,D4:22:CD:00:85:22,0.9628204703330994,-0.11472547054290771,-0.15288206934928894,0.19089743494987488,-16.767870104525105,-14.51268780613841,24.57921745292096,10.121792793273926,3.816850185394287,6.520834922790527,250.22283935546875,-169.5270233154297,-52.337806701660156
2026-04-02 13:02:26.362,1885.368471395,624178303,right_foot,右脚,D4:22:CD:00:85:22,0.9527968168258667,-0.06528544425964355,-0.22423458099365234,0.19399715960025787,-13.349098876545076,-23.70136587375711,25.830417198147043,6.359169006347656,11.695549964904785,12.603025436401367,114.51679992675781,-273.2976379394531,-36.74177169799805
2026-04-02 13:02:26.392,1885.398455902,624211637,right_foot,右脚,D4:22:CD:00:85:22,0.9404504895210266,-0.04689674451947212,-0.2799229025840759,0.18707428872585297,-12.952550437620612,-30.594639669912546,26.05761524266813,24.666900634765625,-1.2173597812652588,6.280292510986328,14.483450889587402,-200.50204467773438,-40.383758544921875
2026-04-02 13:02:26.452,1885.458371809,624244971,right_foot,右脚,D4:22:CD:00:85:22,0.9309787750244141,-0.03328825533390045,-0.3129505217075348,0.1850200891494751,-12.500470676517685,-34.7769075727084,26.40939366136949,9.56749439239502,0.7182843089103699,5.459981441497803,18.881040573120117,-121.85064697265625,-18.20335578918457
2026-04-02 13:02:26.482,1885.488458152,624278305,right_foot,右脚,D4:22:CD:00:85:22,0.924596905708313,-0.02382415160536766,-0.3335643708705902,0.18244920670986176,-12.053486847314232,-37.45454343101162,26.42500688464235,9.143587112426758,-0.7511329650878906,5.097677230834961,13.352580070495605,-76.24662780761719,-15.993448257446289
2026-04-02 13:02:26.512,1885.518453736,624311639,right_foot,右脚,D4:22:CD:00:85:22,0.9205847382545471,-0.019811123609542847,-0.34551721811294556,0.18096686899662018,-11.992156727596491,-38.975314650913916,26.499926132227955,7.839795112609863,-0.32345137000083923,6.1812357902526855,2.9238600730895996,-42.874576568603516,-7.111234664916992
2026-04-02 13:02:26.542,1885.548268281,624344973,right_foot,右脚,D4:22:CD:00:85:22,0.9189462065696716,-0.01982998475432396,-0.3501511514186859,0.18038512766361237,-12.181742796827454,-39.522863957352996,26.60226032318875,7.971032619476318,-0.9045192003250122,5.778141498565674,-4.036567687988281,-14.66788101196289,-0.4935069978237152
2026-04-02 13:02:26.572,1885.578330901,624378307,right_foot,右脚,D4:22:CD:00:85:22,0.9175664782524109,-0.019100312143564224,-0.3540550172328949,0.1798667162656784,-12.2418585447267,-40.00593629379174,26.652790646824073,7.374753952026367,-1.6637011766433716,5.390038967132568,-1.0866084098815918,-12.698427200317383,-1.3628803491592407
2026-04-02 13:02:26.602,1885.608300298,624411641,right_foot,右脚,D4:22:CD:00:85:22,0.915506899356842,-0.016164761036634445,-0.3600674569606781,0.17871010303497314,-12.071310198713093,-40.80682963355914,26.595336843356613,7.115745544433594,-1.26558256149292,5.66829252243042,3.7870352268218994,-21.68408203125,-5.849406719207764
2026-04-02 13:02:26.632,1885.63845333,624444975,right_foot,右脚,D4:22:CD:00:85:22,0.9132958650588989,-0.010830683633685112,-0.3667723834514618,0.17678043246269226,-11.559668901278426,-41.767855602219036,26.333073684744804,7.138838768005371,-1.555345892906189,5.366572856903076,9.974507331848145,-25.679479598999023,-11.268294334411621
2026-04-02 13:02:26.662,1885.66835106,624478309,right_foot,右脚,D4:22:CD:00:85:22,0.9097153544425964,-0.0008626327035017312,-0.37769997119903564,0.1725105196237564,-10.455435346056733,-43.38532212235284,25.644067064998747,6.932713508605957,-2.089259624481201,6.261780261993408,18.998159408569336,-43.582847595214844,-23.87735366821289
2026-04-02 13:02:26.692,1885.698664158,624511643,right_foot,右脚,D4:22:CD:00:85:22,0.9020816683769226,0.010689572431147099,-0.3980540335178375,0.1663958728313446,-9.41091841857789,-46.19598694721158,24.923443522249826,7.517354488372803,-0.41756734251976013,6.962862014770508,15.977102279663086,-79.47896575927734,-29.408714294433594
2026-04-02 13:02:26.752,1885.758615799,624544977,right_foot,右脚,D4:22:CD:00:85:22,0.8900066018104553,0.01991656981408596,-0.4265769422054291,0.15976189076900482,-9.020470051394392,-49.96719416098693,24.56313557339073,8.191061973571777,0.5914556980133057,9.117128372192383,3.532510995864868,-109.80220794677734,-25.021228790283203
2026-04-02 13:02:26.812,1885.81846955,624578311,right_foot,右脚,D4:22:CD:00:85:22,0.8695182800292969,0.023525234311819077,-0.46900370717048645,0.153036430478096,-10.40485120100034,-55.367581475741176,25.433621982170717,8.576217651367188,1.1531707048416138,11.190335273742676,-20.888568878173828,-161.91769409179688,-11.462323188781738
2026-04-02 13:02:26.812,1885.818549222,624611645,right_foot,右脚,D4:22:CD:00:85:22,0.8321515321731567,0.024009263142943382,-0.5344892144203186,0.14583756029605865,-15.174055492778141,-63.708868928575775,29.34290315136521,7.759138584136963,1.7589267492294312,13.01757526397705,-41.81132125854492,-257.00238037109375,2.978886365890503
2026-04-02 13:02:26.872,1885.878522057,624644979,right_foot,右脚,D4:22:CD:00:85:22,0.7663596868515015,0.03414704650640488,-0.6273841857910156,0.13385064899921417,-28.783256578158213,-76.10680458042117,42.52946089315663,9.649230003356934,-4.932308197021484,18.419946670532227,-34.39760208129883,-394.03277587890625,-11.96615219116211
2026-04-02 13:02:26.872,1885.878649602,624678313,right_foot,右脚,D4:22:CD:00:85:22,0.6695924997329712,0.06660261005163193,-0.7325744032859802,0.10268738865852356,-143.30567010223112,-84.1158239739771,157.07418874150716,17.978191375732422,-12.856550216674805,21.685956954956055,-18.904863357543945,-507.6058349609375,-95.54771423339844
2026-04-02 13:02:26.902,1885.908360475,624711647,right_foot,右脚,D4:22:CD:00:85:22,0.601692259311676,0.0879548043012619,-0.790380597114563,0.07435602694749832,-177.47172328886924,-74.62512938831883,-169.22735853445047,16.20641326904297,-6.50675630569458,16.320642471313477,-27.221710205078125,-320.8396301269531,-82.32659912109375
2026-04-02 13:02:26.932,1885.938349903,624744981,right_foot,右脚,D4:22:CD:00:85:22,0.6270201206207275,0.10806315392255783,-0.7659851312637329,0.09184184670448303,-178.491425149127,-78.64484969021306,-165.17547894018392,8.068609237670898,-15.653427124023438,16.77243423461914,87.53815460205078,116.45467376708984,-33.14781951904297
2026-04-02 13:02:26.962,1885.968562941,624778315,right_foot,右脚,D4:22:CD:00:85:22,0.6837419867515564,0.11606091260910034,-0.7145790457725525,0.09167131781578064,150.1088464339115,-86.81384479159036,-133.2089177777209,2.4081971645355225,3.918285608291626,11.66244125366211,11.90632438659668,254.2428741455078,-59.597042083740234
2026-04-02 13:02:26.992,1885.998435659,624811649,right_foot,右脚,D4:22:CD:00:85:22,0.7638481259346008,0.09371010214090347,-0.6336737871170044,0.07881741225719452,13.56428547571618,-79.36812254951204,0.5111070074912911,5.069214344024658,-5.442859172821045,5.316191673278809,-90.57234954833984,386.0245361328125,-33.907527923583984
2026-04-02 13:02:27.052,1886.058531534,624844983,right_foot,右脚,D4:22:CD:00:85:22,0.8339849710464478,0.06966318935155869,-0.5420429110527039,0.07619523257017136,4.768988324162653,-66.16701216449604,7.332483789755174,2.1224610805511475,0.17988958954811096,6.772039890289307,-66.29899597167969,396.41497802734375,-4.195557594299316
2026-04-02 13:02:27.082,1886.088537725,624878317,right_foot,右脚,D4:22:CD:00:85:22,0.882583737373352,0.020804433152079582,-0.4636229872703552,0.07527919113636017,-3.325754906870098,-55.23567575064609,11.490721495892444,9.095161437988281,-1.2642440795898438,7.641393184661865,-132.53382873535156,325.0574035644531,55.89426803588867
2026-04-02 13:02:27.113,1886.119194384,624911651,right_foot,右脚,D4:22:CD:00:85:22,0.9250889420509338,-0.03798212110996246,-0.3656652867794037,0.09516650438308716,-10.851174891725611,-42.01434182236839,15.924615906847047,17.28668212890625,-2.6860508918762207,9.697665214538574,-124.05951690673828,379.4135437011719,135.23448181152344
2026-04-02 13:02:27.142,1886.148564766,624944985,right_foot,右脚,D4:22:CD:00:85:22,0.9528635740280151,-0.10849080979824066,-0.25558415055274963,0.12230126559734344,-17.659231928897984,-27.421730975212206,18.968757146407782,23.167728424072266,1.6452769041061401,7.245885848999023,-150.40077209472656,403.2681579589844,179.76959228515625
2026-04-02 13:02:27.172,1886.178526039,624978319,right_foot,右脚,D4:22:CD:00:85:22,0.9616955518722534,-0.17175985872745514,-0.15730834007263184,0.14454805850982666,-22.85919995745515,-14.649801414874284,20.073125499498413,34.01335144042969,4.328483581542969,-3.232595682144165,-143.1029052734375,347.58282470703125,161.2864990234375
2026-04-02 13:02:27.202,1886.208542253,625011653,right_foot,右脚,D4:22:CD:00:85:22,0.9602295756340027,-0.18959887325763702,-0.11525648087263107,0.16949088871479034,-24.095239121902182,-9.037149677498524,21.953010637934156,38.270626068115234,8.520210266113281,-22.19197654724121,-25.28458595275879,133.1070556640625,118.07905578613281
2026-04-02 13:02:27.232,1886.238274067,625044987,right_foot,右脚,D4:22:CD:00:85:22,0.9656150937080383,-0.11635833978652954,-0.15001355111598969,0.17760689556598663,-16.678146195160885,-14.381586791695005,22.962969360000915,26.000797271728516,10.7528076171875,-16.893173217773438,228.83779907226562,-158.0791473388672,-27.090003967285156
2026-04-02 13:02:27.262,1886.268584552,625078321,right_foot,右脚,D4:22:CD:00:85:22,0.9574258923530579,-0.06454125791788101,-0.21788948774337769,0.17802974581718445,-12.644321660345787,-23.218920891334555,23.67508778833269,1.940561056137085,11.301482200622559,19.27873420715332,127.58207702636719,-258.3931579589844,-46.67336654663086
2026-04-02 13:02:27.292,1886.298616856,625111655,right_foot,右脚,D4:22:CD:00:85:22,0.9408379793167114,-0.041975513100624084,-0.2875238060951233,0.1743336319923401,-12.169464319985643,-31.761934681907956,24.46944788092773,33.008262634277344,1.6014318466186523,5.267603397369385,24.619962692260742,-251.8688507080078,-33.467655181884766
2026-04-02 13:02:27.352,1886.358340703,625144989,right_foot,右脚,D4:22:CD:00:85:22,0.9312999248504639,-0.03390910476446152,-0.31889817118644714,0.17272739112377167,-12.309415919198075,-35.610045713390825,24.981414057365967,9.920892715454102,-0.275186151266098,5.236328125,3.807407855987549,-111.87996673583984,-10.889727592468262
2026-04-02 13:02:27.382,1886.388535772,625178323,right_foot,右脚,D4:22:CD:00:85:22,0.9260498285293579,-0.028378786519169807,-0.33573248982429504,0.1700299084186554,-12.172400138158478,-37.74581131466517,24.98312304157758,8.502201080322266,-1.335465669631958,5.453883171081543,3.7003207206726074,-59.21572494506836,-12.513155937194824
2026-04-02 13:02:27.412,1886.418537554,625211657,right_foot,右脚,D4:22:CD:00:85:22,0.9227619767189026,-0.025982700288295746,-0.34606295824050903,0.16755856573581696,-12.18510363418358,-39.047178721896934,24.918593673178307,7.011699676513672,0.006059600040316582,6.6249308586120605,-1.9875175952911377,-34.764556884765625,-8.767578125
2026-04-02 13:02:27.442,1886.448610262,625244991,right_foot,右脚,D4:22:CD:00:85:22,0.9210472106933594,-0.026709124445915222,-0.3512306809425354,0.1661202609539032,-12.442837422832804,-39.652225253545346,24.94942751206762,7.899240970611572,-1.348607063293457,5.4526848793029785,-7.539603233337402,-15.142438888549805,-2.275787591934204
2026-04-02 13:02:27.472,1886.478531303,625278325,right_foot,右脚,D4:22:CD:00:85:22,0.9209084510803223,-0.02342206984758377,-0.3522182106971741,0.16529223322868347,-11.99943010396607,-39.86481353033899,24.71641182118125,7.381962776184082,-2.4772446155548096,5.040130615234375,8.501985549926758,-2.5718841552734375,-5.804929256439209
2026-04-02 13:02:27.502,1886.508550165,625311659,right_foot,右脚,D4:22:CD:00:85:22,0.9198336005210876,-0.016049081459641457,-0.35631054639816284,0.16337555646896362,-11.075925193833045,-40.56035073495647,24.246821576462604,6.5817155838012695,-1.007340908050537,6.269708156585693,18.334007263183594,-15.987241744995117,-14.037542343139648
2026-04-02 13:02:27.532,1886.538476444,625344993,right_foot,右脚,D4:22:CD:00:85:22,0.9166213870048523,-0.007083800155669451,-0.3664739727973938,0.159536212682724,-10.073791492632111,-42.03431543217371,23.62558282710581,7.041351795196533,-0.9670090079307556,6.048217296600342,17.48813819885254,-38.82851791381836,-21.28359603881836
2026-04-02 13:02:27.562,1886.568617774,625378327,right_foot,右脚,D4:22:CD:00:85:22,0.9105623364448547,0.00414706626906991,-0.38332220911979675,0.15467247366905212,-8.936038187844574,-44.37568622813268,22.931718851369748,6.925662517547607,-1.668335199356079,6.257900238037109,19.614646911621094,-64.87560272216797,-26.03917694091797
2026-04-02 13:02:27.592,1886.598434429,625411661,right_foot,右脚,D4:22:CD:00:85:22,0.8998787999153137,0.017938723787665367,-0.41032636165618896,0.14672687649726868,-7.575694769448387,-48.05202209528535,21.90235973185062,7.584651947021484,-0.6232156157493591,8.588495254516602,18.26395034790039,-104.40486145019531,-36.54472351074219
2026-04-02 13:02:27.652,1886.65860191,625444995,right_foot,右脚,D4:22:CD:00:85:22,0.8839302062988281,0.028560016304254532,-0.44638216495513916,0.13636377453804016,-6.773837736676852,-52.83794445562766,20.908063575583384,8.456984519958496,0.6090770959854126,10.623271942138672,0.793157696723938,-138.72857666015625,-36.370731353759766
2026-04-02 13:02:27.682,1886.688667671,625478329,right_foot,右脚,D4:22:CD:00:85:22,0.8548665046691895,0.03365619480609894,-0.5018103122711182,0.12750355899333954,-8.111384993292328,-60.059483401037966,21.660234383284266,8.136934280395508,2.682931661605835,12.658137321472168,-21.523618698120117,-215.51144409179688,-15.221023559570312
2026-04-02 13:02:27.712,1886.718357308,625511663,right_foot,右脚,D4:22:CD:00:85:22,0.8024594783782959,0.04011709615588188,-0.5839961767196655,0.11574947088956833,-12.681632159434592,-71.18298813127913,25.510252551709375,8.005293846130371,-1.5749067068099976,17.269290924072266,-31.55687141418457,-336.3307800292969,-12.654886245727539
2026-04-02 13:02:27.742,1886.748515212,625544997,right_foot,右脚,D4:22:CD:00:85:22,0.710599422454834,0.06735996901988983,-0.6950596570968628,0.08604275435209274,-44.01918989126122,-88.03084350744535,56.475528418245545,15.913957595825195,-10.911704063415527,23.69371795654297,-16.179447174072266,-508.26483154296875,-84.74453735351562
2026-04-02 13:02:27.772,1886.778522496,625578331,right_foot,右脚,D4:22:CD:00:85:22,0.6145341992378235,0.10965590924024582,-0.7794929146766663,0.052100010216236115,167.38427793266638,-75.80714902080597,-154.14684605468975,9.422072410583496,-12.989880561828613,20.59121322631836,19.53105354309082,-459.5255126953125,-136.7837677001953
2026-04-02 13:02:27.805,1886.811312847,625611665,right_foot,右脚,D4:22:CD:00:85:22,0.6155450940132141,0.12163548171520233,-0.775937557220459,0.06503989547491074,168.2051948854044,-76.18485733299322,-152.92332402331314,18.783252716064453,-13.392465591430664,17.89906120300293,60.174171447753906,10.015440940856934,-7.184994697570801
2026-04-02 13:02:27.832,1886.838343979,625644999,right_foot,右脚,D4:22:CD:00:85:22,0.660990834236145,0.12908834218978882,-0.734591543674469,0.08247891813516617,156.27525718686533,-82.9365104191038,-139.0346992735975,-0.9537103176116943,0.5660702586174011,15.275470733642578,52.540985107421875,210.63319396972656,-11.768442153930664
2026-04-02 13:02:27.862,1886.868533431,625678333,right_foot,右脚,D4:22:CD:00:85:22,0.7342615127563477,0.09632483869791031,-0.6672558188438416,0.07969602942466736,21.095994195057674,-84.40371247895422,-6.779050819002186,5.509629249572754,-2.870903491973877,6.485713481903076,-94.8927001953125,342.5420837402344,24.61785316467285
2026-04-02 13:02:27.892,1886.898452396,625711667,right_foot,右脚,D4:22:CD:00:85:22,0.8152294158935547,0.0696854218840599,-0.5681602954864502,0.08797197043895721,2.268671507275141,-69.82148981760864,10.734602978491617,6.197152614593506,-0.9549635052680969,5.177158832550049,-47.65345001220703,443.1488037109375,25.754867553710938
2026-04-02 13:02:27.952,1886.958417387,625745001,right_foot,右脚,D4:22:CD:00:85:22,0.8756892085075378,0.03163713961839676,-0.470846563577652,0.10232899338006973,-4.22324558585344,-56.21242946488591,15.586505968425856,7.459065914154053,-0.5953641533851624,7.430213451385498,-63.24979782104492,402.9205627441406,71.92854309082031
2026-04-02 13:02:27.982,1886.988545695,625778335,right_foot,右脚,D4:22:CD:00:85:22,0.9190919995307922,-0.021254887804389,-0.3728249967098236,0.12577560544013977,-10.439080072318436,-42.84163863734794,19.689800025022905,17.547090530395508,-1.730614423751831,10.089473724365234,-91.1796646118164,383.8555908203125,129.44960021972656
2026-04-02 13:02:28.042,1887.048369298,625811669,right_foot,右脚,D4:22:CD:00:85:22,0.9488561153411865,-0.08967752754688263,-0.2642328441143036,0.14768609404563904,-16.384049848902997,-28.356066860175023,21.859519963411994,28.51409912109375,-1.1800957918167114,4.444092750549316,-138.8797607421875,407.6551818847656,151.4288787841797
2026-04-02 13:02:28.042,1887.048494809,625845003,right_foot,右脚,D4:22:CD:00:85:22,0.9591084122657776,-0.13317975401878357,-0.1773037314414978,0.17589205503463745,-19.417973588427536,-17.0530102474049,23.722896251901002,32.721065521240234,4.660243988037109,-7.039595603942871,-68.68204498291016,305.5986328125,152.87869262695312
2026-04-02 13:02:28.072,1887.078529981,625878337,right_foot,右脚,D4:22:CD:00:85:22,0.9595817923545837,-0.13706140220165253,-0.15303942561149597,0.19234402477741241,-19.371421434100757,-13.944490019166729,25.060434312563455,35.24326705932617,8.177223205566406,-24.586872100830078,12.425928115844727,76.0674057006836,67.74119567871094
2026-04-02 13:02:28.102,1887.108538387,625911671,right_foot,右脚,D4:22:CD:00:85:22,0.9569132924079895,-0.07399468123912811,-0.20527972280979156,0.1915784776210785,-13.68255040540297,-21.377928167979906,25.23692747823553,24.126510620117188,13.18867301940918,-17.31551170349121,172.39341735839844,-212.06480407714844,-57.77096176147461
2026-04-02 13:02:28.132,1887.138480001,625945005,right_foot,右脚,D4:22:CD:00:85:22,0.9418306946754456,-0.028962597250938416,-0.28111761808395386,0.18190407752990723,-10.57210960974903,-31.264763201908995,24.828871776036614,12.795319557189941,5.678089141845703,18.47499656677246,87.38347625732422,-283.6470031738281,-72.10516357421875
2026-04-02 13:02:28.162,1887.168412469,625978339,right_foot,右脚,D4:22:CD:00:85:22,0.9281893372535706,-0.007631340995430946,-0.3281555473804474,0.17527148127555847,-9.351959667156908,-37.33728658420022,24.552671443907027,26.89995765686035,6.291459083557129,3.8816628456115723,31.300500869750977,-173.70022583007812,-37.126220703125
2026-04-02 13:02:28.192,1887.198510474,626011673,right_foot,右脚,D4:22:CD:00:85:22,0.9181041717529297,-0.006347188726067543,-0.3558569550514221,0.1743859499692917,-10.305804010261818,-40.63316969349611,25.333972353115605,9.454184532165527,-1.3639342784881592,3.4144229888916016,-14.597572326660156,-95.68629455566406,2.442253589630127
2026-04-02 13:02:28.252,1887.258558783,626045007,right_foot,右脚,D4:22:CD:00:85:22,0.9127136468887329,-0.005841570440679789,-0.3695612847805023,0.17419640719890594,-10.85893898358785,-42.26587868258305,25.81854144183449,8.304696083068848,0.09145794808864594,6.110947132110596,-7.579300403594971,-45.48258590698242,3.065589666366577
2026-04-02 13:02:28.282,1887.28834279,626078341,right_foot,右脚,D4:22:CD:00:85:22,0.9104217886924744,-0.00912824459373951,-0.373705118894577,0.17718243598937988,-11.687495493736673,-42.627067597623544,26.59939077180333,8.211642265319824,-0.18656480312347412,5.865879058837891,-9.614434242248535,-9.594295501708984,16.181793212890625
2026-04-02 13:02:28.312,1887.318522407,626111675,right_foot,右脚,D4:22:CD:00:85:22,0.9086025357246399,-0.012465332634747028,-0.3765931725502014,0.18017713725566864,-12.470691742277499,-42.83231100418498,27.340309318650476,7.600273609161377,-2.2083239555358887,5.389559745788574,-8.920987129211426,-5.270991802215576,15.997884750366211
2026-04-02 13:02:28.342,1887.348523731,626145009,right_foot,右脚,D4:22:CD:00:85:22,0.9077860116958618,-0.00979103334248066,-0.3790076673030853,0.17939409613609314,-12.177612419680635,-43.204359004187644,27.194546670294255,7.044640064239502,-2.4894933700561523,5.213038921356201,5.410935878753662,-6.268716335296631,-4.306947231292725
2026-04-02 13:02:28.372,1887.378523018,626178343,right_foot,右脚,D4:22:CD:00:85:22,0.9066053032875061,-0.002567935036495328,-0.3840787410736084,0.17476767301559448,-11.146861140060073,-44.06851512687666,26.3456153268207,6.907786846160889,-2.3469626903533936,5.383823871612549,12.994006156921387,-17.921998977661133,-22.220951080322266
2026-04-02 13:02:28.402,1887.408503511,626211677,right_foot,右脚,D4:22:CD:00:85:22,0.903924286365509,0.00996435061097145,-0.394424706697464,0.16507822275161743,-9.254251155470175,-45.75393668437416,24.61081628969712,6.790977954864502,-1.6899200677871704,5.782742500305176,19.701208114624023,-39.69642639160156,-44.31032180786133
2026-04-02 13:02:28.432,1887.438523689,626245011,right_foot,右脚,D4:22:CD:00:85:22,0.8971465229988098,0.021871745586395264,-0.41222497820854187,0.15722769498825073,-7.807250525332981,-48.290676528954556,23.384730544702425,7.289002418518066,1.1428545713424683,6.963160037994385,16.105653762817383,-68.2037124633789,-35.22718811035156
2026-04-02 13:02:28.462,1887.468536676,626278345,right_foot,右脚,D4:22:CD:00:85:22,0.8845618367195129,0.032888833433389664,-0.4406987130641937,0.14917604625225067,-6.85855118691301,-52.13534198711753,22.50325783358206,8.0040864944458,-1.0435506105422974,9.3207426071167,7.677038669586182,-109.18939208984375,-30.635881423950195
2026-04-02 13:02:28.492,1887.498300189,626311679,right_foot,右脚,D4:22:CD:00:85:22,0.8627549409866333,0.04485834762454033,-0.48418155312538147,0.1385999619960785,-6.151531951385946,-57.98341975968681,21.663918888131636,8.260931968688965,1.1787512302398682,11.372010231018066,0.12506212294101715,-170.03274536132812,-33.379295349121094
2026-04-02 13:02:28.551,1887.557379004,626345013,right_foot,右脚,D4:22:CD:00:85:22,0.8222560286521912,0.054132796823978424,-0.5521517992019653,0.12685878574848175,-7.567658962378701,-67.1839619523558,22.571540267361833,8.367796897888184,0.2831588387489319,14.914055824279785,-18.6202449798584,-273.4969482421875,-19.534942626953125
2026-04-02 13:02:28.582,1887.588539496,626378347,right_foot,右脚,D4:22:CD:00:85:22,0.7465331554412842,0.07646027207374573,-0.6538894176483154,0.09628544747829437,-5.046700180580012,-82.31751057395458,19.11081778875081,11.214017868041992,-7.4193644523620605,20.879636764526367,-25.535375595092773,-447.0633850097656,-76.16630554199219
2026-04-02 13:02:28.612,1887.618315784,626411681,right_foot,右脚,D4:22:CD:00:85:22,0.6504230499267578,0.11339069157838821,-0.7492064237594604,0.05274692922830582,155.22336233250516,-80.59720057010226,-141.68456297834345,19.656370162963867,-9.767565727233887,21.88188362121582,-9.451783180236816,-486.5796203613281,-138.13101196289062
2026-04-02 13:02:28.642,1887.64852854,626445015,right_foot,右脚,D4:22:CD:00:85:22,0.6048206686973572,0.12965930998325348,-0.7849990725517273,0.03401709720492363,158.75644137767472,-73.41319094029369,-145.32308888988464,18.809764862060547,-14.702361106872559,14.528030395507812,-0.5618612766265869,-209.93283081054688,-62.115196228027344
2026-04-02 13:02:28.672,1887.678545903,626478349,right_foot,右脚,D4:22:CD:00:85:22,0.6353091597557068,0.16589383780956268,-0.7507545351982117,0.07231298834085464,150.72303405173122,-77.93606570763008,-131.22002079180234,-0.6556879281997681,-8.300858497619629,18.203073501586914,169.22230529785156,162.83436584472656,-38.64067459106445
2026-04-02 13:02:28.732,1887.73824617,626511683,right_foot,右脚,D4:22:CD:00:85:22,0.6967331171035767,0.14602261781692505,-0.6992233395576477,0.0657806396484375,100.40501384973302,-83.49148640487117,-83.15006944726409,-0.46247923374176025,0.4068666696548462,12.474390029907227,-82.21376037597656,267.7635803222656,-9.261941909790039
2026-04-02 13:02:28.732,1887.738412385,626545017,right_foot,右脚,D4:22:CD:00:85:22,0.7796681523323059,0.11294522881507874,-0.6115896701812744,0.0729338750243187,21.000072732326707,-75.96522718713612,-5.780191853979843,3.933434247970581,-3.6605544090270996,7.014171123504639,-83.32147216796875,416.050048828125,32.12763977050781
2026-04-02 13:02:28.762,1887.768590875,626578351,right_foot,右脚,D4:22:CD:00:85:22,0.8488467931747437,0.06938090920448303,-0.5150826573371887,0.09662043303251266,2.273489654457041,-62.60549749970218,11.60497993972136,5.316231727600098,0.45671653747558594,8.192953109741211,-68.76632690429688,419.7803649902344,98.6039810180664
2026-04-02 13:02:28.792,1887.798581753,626611685,right_foot,右脚,D4:22:CD:00:85:22,0.8999226093292236,0.021446198225021362,-0.4167158305644989,0.12660013139247894,-5.86156987941386,-49.0650496282221,18.69265484060848,15.342588424682617,-1.2747539281845093,11.086933135986328,-65.35600280761719,395.8045349121094,130.43023681640625
2026-04-02 13:02:28.852,1887.858533693,626645019,right_foot,右脚,D4:22:CD:00:85:22,0.9380351901054382,-0.04742756113409996,-0.3064350187778473,0.15472076833248138,-12.820030546776364,-34.070835176606955,22.67528260360331,25.832290649414062,-0.22710591554641724,11.228200912475586,-126.97925567626953,423.8223876953125,159.68038940429688
2026-04-02 13:02:28.882,1887.888512133,626678353,right_foot,右脚,D4:22:CD:00:85:22,0.9552893042564392,-0.10606832802295685,-0.21261964738368988,0.17596806585788727,-17.369699617910516,-21.64762487276263,24.21987095641357,30.61856460571289,1.8880596160888672,-0.42014312744140625,-113.39971923828125,345.3360290527344,135.27450561523438
2026-04-02 13:02:28.912,1887.918522025,626711687,right_foot,右脚,D4:22:CD:00:85:22,0.9549497961997986,-0.14419308304786682,-0.15933677554130554,0.20467336475849152,-20.570053075665033,-14.199104751329967,26.783657506317805,37.464927673339844,8.93554973602295,-16.8395938873291,-71.63507080078125,186.6169891357422,141.47434997558594
2026-04-02 13:02:28.942,1887.948429033,626745021,right_foot,右脚,D4:22:CD:00:85:22,0.9535930752754211,-0.12435581535100937,-0.1696467399597168,0.21544402837753296,-18.79800690320496,-15.662148754784315,28.07042510585295,28.89801788330078,7.760887145996094,-29.14151954650879,63.606842041015625,-51.307979583740234,21.158294677734375
2026-04-02 13:02:28.972,1887.978429424,626778355,right_foot,右脚,D4:22:CD:00:85:22,0.94438636302948,-0.060176245868206024,-0.23550736904144287,0.2214718908071518,-13.88437399358414,-24.71879509806243,29.452942837982313,11.678464889526367,9.169429779052734,9.02131462097168,161.96974182128906,-266.6488037109375,-37.78943634033203
2026-04-02 13:02:29.002,1888.008359374,626811689,right_foot,右脚,D4:22:CD:00:85:22,0.9263287782669067,-0.01370583288371563,-0.30979716777801514,0.21389959752559662,-11.063345905992788,-34.616768078328946,29.461995287334155,31.43997573852539,3.5739970207214355,8.89968204498291,84.31572723388672,-284.3853759765625,-62.5875244140625
2026-04-02 13:02:29.032,1888.038524726,626845023,right_foot,右脚,D4:22:CD:00:85:22,0.9143351912498474,-0.003936057910323143,-0.34820517897605896,0.20671047270298004,-11.285050607538025,-39.42925569548497,29.53355987980694,10.226480484008789,4.676980018615723,6.706907272338867,-5.933333396911621,-134.46803283691406,-24.46614646911621
2026-04-02 13:02:29.062,1888.068431179,626878357,right_foot,右脚,D4:22:CD:00:85:22,0.9045536518096924,0.0017011119052767754,-0.37633082270622253,0.20038773119449615,-11.64755726900621,-42.96131246439676,29.579187062727474,8.318115234375,-2.6211650371551514,4.73630952835083,-10.702176094055176,-96.49442291259766,-17.968870162963867
2026-04-02 13:02:29.092,1888.098430943,626911691,right_foot,右脚,D4:22:CD:00:85:22,0.9004735350608826,0.006971091963350773,-0.3875168263912201,0.19730648398399353,-11.345499342131177,-44.479012280552205,29.369795383565876,8.76420783996582,-0.43153566122055054,5.276281356811523,4.073088645935059,-36.18320083618164,-11.461976051330566
2026-04-02 13:02:29.183,1888.189308202,626945025,right_foot,右脚,D4:22:CD:00:85:22,0.8989126086235046,0.00737952534109354,-0.3901323974132538,0.19924549758434296,-11.555297326302481,-44.77546222187977,29.76859834452037,8.1318941116333,0.041145097464323044,6.265141010284424,1.4420831203460693,-3.1368296146392822,8.627202987670898
2026-04-02 13:02:29.183,1888.189437165,626978359,right_foot,右脚,D4:22:CD:00:85:22,0.8964187502861023,0.009782250039279461,-0.3952183425426483,0.20035047829151154,-11.577653763974315,-45.43721297053901,30.058317189989072,7.409943103790283,-2.128723382949829,5.34359073638916,4.866541385650635,-13.863739013671875,3.969280481338501
2026-04-02 13:02:29.212,1888.218581289,627011693,right_foot,右脚,D4:22:CD:00:85:22,0.893774151802063,0.015772704035043716,-0.40178775787353516,0.19871021807193756,-10.996696916486766,-46.42588142801047,29.797044614590668,7.236700057983398,-1.7747563123703003,5.021361351013184,11.2835111618042,-21.69043731689453,-9.43048095703125
2026-04-02 13:02:29.242,1888.248619986,627045027,right_foot,右脚,D4:22:CD:00:85:22,0.8912684917449951,0.024977857246994972,-0.40912941098213196,0.19398416578769684,-9.75946334373364,-47.644498649690185,28.875169511420907,7.339371681213379,-1.5746437311172485,5.256494522094727,16.414337158203125,-26.744909286499023,-23.63312339782715
2026-04-02 13:02:29.272,1888.278620772,627078361,right_foot,右脚,D4:22:CD:00:85:22,0.8889402747154236,0.033628493547439575,-0.4163462817668915,0.18790969252586365,-8.446924521251992,-48.83805383287959,27.712251844888804,7.927115440368652,-0.42765238881111145,5.315245628356934,12.875670433044434,-26.366912841796875,-27.29192543029785
2026-04-02 13:02:29.302,1888.30835692,627111695,right_foot,右脚,D4:22:CD:00:85:22,0.8861802220344543,0.042610421776771545,-0.4243180453777313,0.1811719834804535,-7.009140469588277,-50.12849342907717,26.390010082113356,7.615604877471924,-1.0036861896514893,5.466603755950928,12.462911605834961,-30.057641983032227,-29.55040740966797
2026-04-02 13:02:29.332,1888.338592814,627145029,right_foot,右脚,D4:22:CD:00:85:22,0.8798537254333496,0.05611787736415863,-0.4391792416572571,0.1727137416601181,-4.978042219451164,-52.392658138672196,24.66197374575754,7.503030776977539,-1.2442952394485474,6.97292947769165,19.980924606323242,-59.83415222167969,-38.33662796020508
2026-04-02 13:02:29.362,1888.36852976,627178363,right_foot,右脚,D4:22:CD:00:85:22,0.8681864142417908,0.07018782943487167,-0.463102787733078,0.16389597952365875,-3.0526228298117974,-55.80463577210282,22.997655159318047,8.464815139770508,1.7332366704940796,8.275535583496094,16.789613723754883,-96.28005981445312,-35.48104476928711
2026-04-02 13:02:29.392,1888.398650286,627211697,right_foot,右脚,D4:22:CD:00:85:22,0.8459513187408447,0.0751974806189537,-0.503913938999176,0.15742427110671997,-3.7398376824338615,-61.19316217311509,23.29528328499237,8.262831687927246,2.9776346683502197,10.652741432189941,-13.549717903137207,-158.48806762695312,-3.896211862564087
2026-04-02 13:02:29.452,1888.458621403,627245031,right_foot,右脚,D4:22:CD:00:85:22,0.8071808218955994,0.08566011488437653,-0.5663723945617676,0.14263221621513367,-3.8740599538088127,-69.84525969706581,22.74730181887924,9.08675765991211,-3.839503765106201,12.500360488891602,-19.473337173461914,-256.1715087890625,-22.954742431640625
2026-04-02 13:02:29.482,1888.488594987,627278365,right_foot,右脚,D4:22:CD:00:85:22,0.7507196664810181,0.1109166368842125,-0.6417247653007507,0.11093837767839432,9.041287802272615,-81.15954545280036,9.064144939989546,13.623411178588867,-7.124257564544678,14.9934663772583,-12.227736473083496,-339.88006591796875,-86.65501403808594
2026-04-02 13:02:29.512,1888.518710288,627311699,right_foot,右脚,D4:22:CD:00:85:22,0.6805012822151184,0.15018554031848907,-0.7138308882713318,0.06933935731649399,121.35162386957242,-82.90978558546126,-103.45711618548766,14.28139877319336,-8.956007957458496,15.45499324798584,8.768144607543945,-372.3359680175781,-139.9196319580078
2026-04-02 13:02:29.542,1888.548467794,627345033,right_foot,右脚,D4:22:CD:00:85:22,0.6381377577781677,0.1751231700181961,-0.7479554414749146,0.05171779543161392,140.96003245516275,-76.58401622098903,-122.37134481147929,12.079731941223145,-8.954547882080078,9.143048286437988,28.79627227783203,-199.60975646972656,-75.27117919921875
2026-04-02 13:02:29.572,1888.578616079,627378367,right_foot,右脚,D4:22:CD:00:85:22,0.6390544772148132,0.18635179102420807,-0.742175817489624,0.07783152908086777,144.36671364813262,-77.84711774562234,-122.71071962769584,2.718776226043701,-6.690306663513184,11.67136001586914,92.20298767089844,27.240657806396484,23.564855575561523
2026-04-02 13:02:29.602,1888.608623816,627411701,right_foot,右脚,D4:22:CD:00:85:22,0.6731390953063965,0.1603608876466751,-0.7168428301811218,0.08546707779169083,130.29483272751654,-82.96938992144507,-110.23593917342788,2.8047096729278564,0.4877527952194214,7.34085750579834,-52.655433654785156,152.3172149658203,56.47858428955078
2026-04-02 13:02:29.632,1888.638632164,627445035,right_foot,右脚,D4:22:CD:00:85:22,0.7256262302398682,0.13701549172401428,-0.6680383086204529,0.09175170212984085,47.489006280560176,-84.06222048423339,-28.84529773179742,3.5362608432769775,-1.5259817838668823,4.095491409301758,-53.00288772583008,250.4490509033203,28.4700870513916
2026-04-02 13:02:29.662,1888.668477762,627478369,right_foot,右脚,D4:22:CD:00:85:22,0.7779124975204468,0.1043366864323616,-0.6112417578697205,0.10173413157463074,9.332471177884582,-76.46180917845537,7.543275402421516,4.561862945556641,2.629211187362671,5.400981903076172,-65.06439971923828,274.677978515625,55.567832946777344
2026-04-02 13:02:29.692,1888.698619343,627511703,right_foot,右脚,D4:22:CD:00:85:22,0.8251111507415771,0.06304740160703659,-0.5477452874183655,0.12325502932071686,-4.519086891160416,-66.84482070998637,19.97522983812999,9.36173152923584,0.5674723386764526,6.018463611602783,-59.661922454833984,289.114501953125,104.1849136352539
2026-04-02 13:02:29.752,1888.758448617,627545037,right_foot,右脚,D4:22:CD:00:85:22,0.8692123293876648,0.021687781438231468,-0.46877163648605347,0.15573294460773468,-10.954139428040785,-55.25323818807877,26.061193327375555,12.222894668579102,-0.5143694877624512,7.571719169616699,-32.01333236694336,329.8879089355469,133.59107971191406
2026-04-02 13:02:29.782,1888.788612453,627578371,right_foot,右脚,D4:22:CD:00:85:22,0.9036957025527954,-0.016810204833745956,-0.3836982846260071,0.18928107619285583,-13.989550856610434,-43.403282341506234,29.250400110670075,14.091788291931152,-0.5691074132919312,10.01940631866455,-17.80184555053711,331.3783264160156,137.0338897705078
2026-04-02 13:02:29.842,1888.848587841,627611705,right_foot,右脚,D4:22:CD:00:85:22,0.9267396330833435,-0.06647969037294388,-0.3023891746997833,0.21282599866390228,-17.311586598253168,-32.1525184131435,30.891507599347207,20.820497512817383,0.2947869896888733,8.747673034667969,-69.05484008789062,312.7815856933594,128.09820556640625
2026-04-02 13:02:29.842,1888.848717834,627645039,right_foot,右脚,D4:22:CD:00:85:22,0.939597487449646,-0.11492379754781723,-0.23186908662319183,0.2240224927663803,-20.27014888917086,-22.59632386742004,30.911368430763613,27.31971549987793,0.2884511351585388,-1.1493430137634277,-88.2994384765625,270.6828918457031,92.72257232666016
2026-04-02 13:02:29.872,1888.87829335,627678373,right_foot,右脚,D4:22:CD:00:85:22,0.9393891096115112,-0.1546371430158615,-0.20336340367794037,0.22864559292793274,-23.802594155748963,-18.14124104293016,31.213574585848416,24.72965431213379,8.37979507446289,-14.056062698364258,-102.86571502685547,121.77302551269531,58.53765869140625
2026-04-02 13:02:29.902,1888.908478933,627711707,right_foot,右脚,D4:22:CD:00:85:22,0.9409400224685669,-0.14583143591880798,-0.21414904296398163,0.21795713901519775,-23.016830629771842,-19.842320038738887,30.162842508273908,23.872541427612305,4.408140182495117,-17.560380935668945,13.13071346282959,-32.232261657714844,-46.36304473876953
2026-04-02 13:02:29.932,1888.938606534,627745041,right_foot,右脚,D4:22:CD:00:85:22,0.9426282048225403,-0.08608994632959366,-0.24742235243320465,0.20693644881248474,-17.05686261696096,-25.519884447877907,28.653581634386107,1.1747928857803345,-3.0612127780914307,11.495899200439453,161.0494384765625,-141.988037109375,-96.24308013916016
2026-04-02 13:02:29.962,1888.968541565,627778375,right_foot,右脚,D4:22:CD:00:85:22,0.9251666069030762,-0.0379263311624527,-0.3058249354362488,0.22158417105674744,-14.248528378530878,-33.30325057793111,31.219837790874045,9.284130096435547,5.06174373626709,9.180179595947266,121.71514892578125,-239.69300842285156,2.6683638095855713
2026-04-02 13:02:29.992,1888.99841501,627811709,right_foot,右脚,D4:22:CD:00:85:22,0.9137733578681946,-0.014315975829958916,-0.346436083316803,0.21164853870868683,-12.817362950688876,-38.83416154437365,30.616389387650667,22.788108825683594,-0.0364602766931057,4.9713029861450195,31.71744155883789,-154.3755340576172,-51.85695266723633
2026-04-02 13:02:30.052,1889.058561581,627845043,right_foot,右脚,D4:22:CD:00:85:22,0.9065356254577637,-0.0034251785837113857,-0.3674946427345276,0.20767536759376526,-12.278375661343953,-41.67245717847804,30.49447620375945,9.041914939880371,2.987295389175415,7.494016647338867,13.276161193847656,-78.56350708007812,-19.939523696899414
2026-04-02 13:02:30.082,1889.088586034,627878377,right_foot,右脚,D4:22:CD:00:85:22,0.9007189869880676,0.000816638465039432,-0.38270270824432373,0.20553161203861237,-12.429613559030484,-43.61039401676027,30.697281936435992,7.690598487854004,-1.0989441871643066,5.296605110168457,-1.0107064247131348,-53.99807357788086,-6.735313415527344
2026-04-02 13:02:30.112,1889.118237781,627911711,right_foot,右脚,D4:22:CD:00:85:22,0.8978396058082581,0.005009549669921398,-0.39027881622314453,0.2038167268037796,-12.181327794665547,-44.656730615693085,30.598371375023167,7.888955593109131,-0.6065528392791748,5.60500955581665,4.8414530754089355,-26.653165817260742,-7.50858736038208
2026-04-02 13:02:30.142,1889.148567241,627945045,right_foot,右脚,D4:22:CD:00:85:22,0.8965535759925842,0.00603035744279623,-0.39324072003364563,0.2037566751241684,-12.2090227597503,-45.03838884754763,30.685713642428446,7.430189609527588,-0.7509281635284424,6.1770734786987305,0.4891549348831177,-8.240310668945312,0.6094642877578735
2026-04-02 13:02:30.172,1889.178590061,627978379,right_foot,右脚,D4:22:CD:00:85:22,0.8948898911476135,0.006564641371369362,-0.3965355455875397,0.20466628670692444,-12.389116027891777,-45.43040941435648,30.967675956745325,7.452497482299805,-1.165163278579712,5.824256420135498,0.10687235742807388,-9.660414695739746,4.458809852600098
2026-04-02 13:02:30.202,1889.20852439,628011713,right_foot,右脚,D4:22:CD:00:85:22,0.8931172490119934,0.007708257529884577,-0.3999579846858978,0.20570707321166992,-12.503114018257765,-45.85588814346596,31.246880730280864,7.53363561630249,-1.203188419342041,5.619243621826172,2.1171982288360596,-10.837594032287598,4.037424564361572
2026-04-02 13:02:30.232,1889.238256764,628045047,right_foot,右脚,D4:22:CD:00:85:22,0.8920478820800781,0.009165624156594276,-0.4020625948905945,0.20618504285812378,-12.456774592208271,-46.145189440373905,31.35260639043115,7.569797992706299,-1.1969599723815918,5.2779059410095215,3.2597529888153076,-6.243516445159912,1.2740118503570557
2026-04-02 13:02:30.262,1889.268534014,628078381,right_foot,右脚,D4:22:CD:00:85:22,0.8914557695388794,0.011083237826824188,-0.40329933166503906,0.20623564720153809,-12.262232521949674,-46.35406524196664,31.318291007885705,7.301555156707764,-1.3133530616760254,5.419861793518066,4.7108473777771,-3.4212372303009033,-1.1051052808761597
2026-04-02 13:02:30.292,1889.298610255,628111715,right_foot,右脚,D4:22:CD:00:85:22,0.8909780383110046,0.014980979263782501,-0.40457943081855774,0.20554648339748383,-11.734491535474953,-46.64392713197146,31.054883049306877,7.147082328796387,-1.5400285720825195,5.41232967376709,9.74634838104248,-4.986047744750977,-6.27101469039917
2026-04-02 13:02:30.352,1889.358514239,628145049,right_foot,右脚,D4:22:CD:00:85:22,0.889637291431427,0.021362613886594772,-0.408226877450943,0.20356735587120056,-10.89856392162947,-47.31105012105396,30.562850072115534,7.042781352996826,-1.5562373399734497,5.967716693878174,13.961776733398438,-15.414518356323242,-13.028661727905273
2026-04-02 13:02:30.382,1889.388531321,628178383,right_foot,右脚,D4:22:CD:00:85:22,0.8867484927177429,0.028970293700695038,-0.41544395685195923,0.20060844719409943,-10.011852459847935,-48.453031014600064,30.009042701447633,7.4484477043151855,-1.196047306060791,5.999655246734619,13.971001625061035,-29.596986770629883,-16.473834991455078
2026-04-02 13:02:30.412,1889.418583926,628211717,right_foot,右脚,D4:22:CD:00:85:22,0.8827222585678101,0.037960950285196304,-0.4250144958496094,0.19678115844726562,-8.959919050945345,-49.93188092981078,29.3126493489054,7.462419509887695,-0.905108630657196,5.820793628692627,15.447989463806152,-39.5699348449707,-20.132949829101562
2026-04-02 13:02:30.442,1889.44850583,628245051,right_foot,右脚,D4:22:CD:00:85:22,0.8759278655052185,0.049407750368118286,-0.44038572907447815,0.19070829451084137,-7.636360055226991,-52.21703477586592,28.312306887879362,7.115493297576904,-1.3086068630218506,6.370036602020264,16.07020378112793,-63.31571960449219,-27.963401794433594
2026-04-02 13:02:30.472,1889.47849405,628278385,right_foot,右脚,D4:22:CD:00:85:22,0.8660939335823059,0.05995587259531021,-0.4611626863479614,0.18334513902664185,-6.559216968465289,-55.165534036937125,27.33447943324372,8.1492280960083,0.5174440741539001,7.093077182769775,8.385732650756836,-84.00248718261719,-27.616605758666992
2026-04-02 13:02:30.502,1889.508536515,628311719,right_foot,右脚,D4:22:CD:00:85:22,0.8548223376274109,0.06477713584899902,-0.4832717478275299,0.17756910622119904,-6.621035768075735,-58.127810309254265,27.152497637563748,8.911860466003418,1.4217325448989868,7.377193450927734,-6.723992347717285,-86.4946060180664,-12.585177421569824
2026-04-02 13:02:30.532,1889.538529862,628345053,right_foot,右脚,D4:22:CD:00:85:22,0.8388980627059937,0.06494694948196411,-0.5118992924690247,0.1731785535812378,-8.31608069320713,-61.80657766746637,28.311430823120975,8.613540649414062,0.04290177673101425,8.596076011657715,-21.062828063964844,-110.44871520996094,3.5902702808380127
2026-04-02 13:02:30.562,1889.568343589,628378387,right_foot,右脚,D4:22:CD:00:85:22,0.8131591081619263,0.07326709479093552,-0.5537505149841309,0.1635984480381012,-9.368257392551005,-67.60020843764548,29.030057783413508,8.427633285522461,-3.082035779953003,9.234829902648926,-12.326387405395508,-172.22854614257812,-16.963396072387695
2026-04-02 13:02:30.592,1889.598591955,628411721,right_foot,右脚,D4:22:CD:00:85:22,0.7736479043960571,0.0990075096487999,-0.6093285083770752,0.14277605712413788,-4.9984468045848045,-76.18779463644547,24.8318587318359,9.290404319763184,-6.219152450561523,11.008600234985352,10.838235855102539,-250.00323486328125,-70.60901641845703
2026-04-02 13:02:30.652,1889.658596475,628445055,right_foot,右脚,D4:22:CD:00:85:22,0.7161990404129028,0.13653022050857544,-0.6765213012695312,0.10362130403518677,49.455981806709794,-85.82212198739613,-29.88898416615761,13.839113235473633,-5.96460485458374,11.457225799560547,4.267481803894043,-331.3804931640625,-131.7871551513672
2026-04-02 13:02:30.683,1889.689605028,628478389,right_foot,右脚,D4:22:CD:00:85:22,0.6573526859283447,0.16282391548156738,-0.7335827350616455,0.05684913694858551,134.70301960278601,-79.40715708204459,-116.75361311861106,11.403103828430176,-2.738006114959717,7.626126289367676,-36.83990478515625,-309.7420654296875,-128.9938507080078
2026-04-02 13:02:30.712,1889.718513106,628511723,right_foot,右脚,D4:22:CD:00:85:22,0.6361762881278992,0.17322924733161926,-0.7513112425804138,0.028329061344265938,136.73544820472927,-74.96065557237206,-120.20453446280622,14.255002975463867,-6.208001136779785,5.877442359924316,-40.04825210571289,-112.43839263916016,-77.15878295898438
2026-04-02 13:02:30.742,1889.748613232,628545057,right_foot,右脚,D4:22:CD:00:85:22,0.6507883071899414,0.1823546439409256,-0.7363114356994629,0.03266138583421707,128.55166123999606,-75.99573633847105,-110.9289392037736,1.4555927515029907,-4.848912715911865,9.16415786743164,23.943105697631836,70.80012512207031,-25.455991744995117
2026-04-02 13:02:30.772,1889.778515431,628578391,right_foot,右脚,D4:22:CD:00:85:22,0.677050769329071,0.16176052391529083,-0.7172882556915283,0.03054983541369438,114.90166685271727,-78.86198104993107,-99.19602939572948,1.3742462396621704,0.5177137851715088,7.368313789367676,-65.58274841308594,108.15998077392578,31.459209442138672
2026-04-02 13:02:30.802,1889.808256434,628611725,right_foot,右脚,D4:22:CD:00:85:22,0.7175464630126953,0.13739630579948425,-0.6816866993904114,0.03940331190824509,77.10172420200628,-81.53713343563774,-62.69887369727803,4.9006667137146,-1.7020922899246216,5.258718013763428,-53.40176010131836,188.15985107421875,55.53411865234375
2026-04-02 13:02:30.862,1889.868586371,628645059,right_foot,右脚,D4:22:CD:00:85:22,0.7643025517463684,0.10676894336938858,-0.6331434845924377,0.059761226177215576,26.513546493398696,-78.69208337167527,-12.922050622468277,4.765307903289795,2.487168550491333,6.334252834320068,-43.01319885253906,240.96432495117188,91.67495727539062
2026-04-02 13:02:30.862,1889.868711705,628678393,right_foot,右脚,D4:22:CD:00:85:22,0.8088871836662292,0.0688445121049881,-0.5780746936798096,0.0824095755815506,2.860296341626925,-71.18086296783886,9.587210384268705,7.523815155029297,1.3513849973678589,6.834136962890625,-55.07628631591797,255.5666961669922,111.82714080810547
2026-04-02 13:02:30.892,1889.898540895,628711727,right_foot,右脚,D4:22:CD:00:85:22,0.8531432747840881,0.029642537236213684,-0.5101465582847595,0.10496732592582703,-6.746939117367012,-61.24435960672923,18.025037367727727,10.945767402648926,0.579449474811554,7.23707914352417,-55.14752197265625,291.023681640625,111.28297424316406
2026-04-02 13:02:30.952,1889.958467053,628745061,right_foot,右脚,D4:22:CD:00:85:22,0.8916286826133728,-0.01236659474670887,-0.43378764390945435,0.12912556529045105,-12.1390301445347,-50.386362302489836,22.207672565409148,12.807047843933105,-0.8489367365837097,8.393848419189453,-57.01864242553711,306.9286804199219,122.22776794433594
2026-04-02 13:02:30.982,1889.988541118,628778395,right_foot,右脚,D4:22:CD:00:85:22,0.919464111328125,-0.06188829988241196,-0.35469308495521545,0.15794946253299713,-16.95704920249109,-39.24996906259989,25.580014535257796,17.03689193725586,-1.5114861726760864,9.196734428405762,-72.45506286621094,302.8260498046875,152.70639038085938
2026-04-02 13:02:31.012,1890.01852964,628811729,right_foot,右脚,D4:22:CD:00:85:22,0.9363234639167786,-0.10036718845367432,-0.27643683552742004,0.19185268878936768,-19.571385025365238,-28.63036995185614,28.199345685957724,23.34485626220703,-2.408322334289551,2.611999273300171,-34.16718292236328,280.2852783203125,161.2435302734375
2026-04-02 13:02:31.042,1890.048455271,628845063,right_foot,右脚,D4:22:CD:00:85:22,0.9423777461051941,-0.12363627552986145,-0.22407345473766327,0.2154747098684311,-20.77017206094225,-21.656589614984558,29.773758557118057,24.44864273071289,5.016703128814697,-8.64172649383545,-15.725990295410156,181.31781005859375,112.18444061279297
2026-04-02 13:02:31.072,1890.078581793,628878397,right_foot,右脚,D4:22:CD:00:85:22,0.9408040046691895,-0.11522195488214493,-0.23203730583190918,0.21856407821178436,-20.182108442164807,-22.720528494555772,30.253061864181426,22.38384246826172,5.8008270263671875,-19.390804290771484,23.0752010345459,-33.13956069946289,1.8624670505523682
2026-04-02 13:02:31.102,1890.108533137,628911731,right_foot,右脚,D4:22:CD:00:85:22,0.9352983832359314,-0.06585531681776047,-0.2671814262866974,0.2224717140197754,-15.922008089568628,-28.06591506319469,30.76338495869398,9.613463401794434,1.479889154434204,7.395495414733887,134.26856994628906,-153.85772705078125,-35.58536911010742
2026-04-02 13:02:31.132,1890.138377531,628945065,right_foot,右脚,D4:22:CD:00:85:22,0.9193382859230042,-0.02862151712179184,-0.3221874237060547,0.22403784096240997,-13.98863916882759,-35.420585496509716,31.878590486571095,7.80203914642334,4.912940979003906,11.349945068359375,75.32257080078125,-217.70281982421875,-28.55147361755371
2026-04-02 13:02:31.162,1890.168525826,628978399,right_foot,右脚,D4:22:CD:00:85:22,0.9072338342666626,-0.007428881712257862,-0.36148780584335327,0.21493718028068542,-12.879725055939717,-40.746581554651364,31.457484317402045,20.580345153808594,-2.955528974533081,3.662580966949463,24.995901107788086,-150.08860778808594,-45.73479080200195
2026-04-02 13:02:31.192,1890.19847208,629011733,right_foot,右脚,D4:22:CD:00:85:22,0.9013678431510925,0.005295971874147654,-0.37936028838157654,0.20879030227661133,-11.807529178760227,-43.32202479467274,30.787152221445737,8.835896492004395,2.381472587585449,7.114429473876953,18.29646110534668,-68.83670043945312,-30.024456024169922
2026-04-02 13:02:31.255,1890.261083308,629045067,right_foot,右脚,D4:22:CD:00:85:22,0.8947268128395081,0.013167943805456161,-0.39714673161506653,0.20387479662895203,-11.433282593484487,-45.72890114144529,30.50724294907661,7.40381383895874,-0.8158562183380127,6.062570571899414,4.844709873199463,-66.26288604736328,-19.28533363342285
2026-04-02 13:02:31.282,1890.288542523,629078401,right_foot,右脚,D4:22:CD:00:85:22,0.8896870613098145,0.016718290746212006,-0.40905725955963135,0.20211218297481537,-11.529027039525856,-47.27545672163064,30.657335453601586,7.999179363250732,0.1270843893289566,5.602666854858398,-0.09879079461097717,-42.99977111816406,-5.084216594696045
2026-04-02 13:02:31.312,1890.318590436,629111735,right_foot,右脚,D4:22:CD:00:85:22,0.8864691257476807,0.019733726978302002,-0.41605615615844727,0.20169395208358765,-11.498969760383888,-48.21084442603761,30.79492197117362,7.600347518920898,-1.7626845836639404,5.503039360046387,3.476414680480957,-25.129674911499023,-1.7911059856414795
2026-04-02 13:02:31.342,1890.348576777,629145069,right_foot,右脚,D4:22:CD:00:85:22,0.8849605917930603,0.024031436070799828,-0.41893234848976135,0.20189838111400604,-11.05991077217628,-48.69278645229468,30.720358660324823,7.891244411468506,-0.8362398743629456,5.469498157501221,11.073122024536133,-11.11286449432373,-3.285019636154175
2026-04-02 13:02:31.372,1890.378304882,629178403,right_foot,右脚,D4:22:CD:00:85:22,0.8826963305473328,0.02693166211247444,-0.4228457510471344,0.2032814919948578,-10.98104509412199,-49.238871655788934,30.981969623569245,7.56933069229126,-0.6455904245376587,5.919407844543457,7.873236656188965,-14.435873031616211,2.8800151348114014
2026-04-02 13:02:31.402,1890.408367666,629211737,right_foot,右脚,D4:22:CD:00:85:22,0.8800482749938965,0.029040861874818802,-0.42751893401145935,0.20469269156455994,-11.079167206636674,-49.85040830876365,31.34884264420736,7.632634162902832,-0.856472373008728,5.467592239379883,5.033722400665283,-16.898351669311523,4.415019512176514
2026-04-02 13:02:31.432,1890.438501383,629245071,right_foot,右脚,D4:22:CD:00:85:22,0.8777804374694824,0.03188025951385498,-0.431781530380249,0.20506013929843903,-10.96538885103641,-50.452200204788205,31.47665972320277,7.505865097045898,-1.4089690446853638,5.260899543762207,5.989076137542725,-15.838411331176758,-0.17422467470169067
2026-04-02 13:02:31.462,1890.468540505,629278405,right_foot,右脚,D4:22:CD:00:85:22,0.8756862878799438,0.03615063056349754,-0.4360615611076355,0.20424669981002808,-10.539922359729383,-51.12104539501889,31.310050343812954,7.591434955596924,-1.1844593286514282,5.325157642364502,8.557266235351562,-16.88775062561035,-6.048364162445068
2026-04-02 13:02:31.522,1890.528531122,629311739,right_foot,右脚,D4:22:CD:00:85:22,0.8738898038864136,0.03988412395119667,-0.4397626221179962,0.20330935716629028,-10.140328244486462,-51.70456803391653,31.11691573574077,7.709916114807129,-0.6636084914207458,5.187666893005371,7.136260986328125,-14.443470001220703,-5.939071178436279
2026-04-02 13:02:31.552,1890.558621037,629345073,right_foot,右脚,D4:22:CD:00:85:22,0.8722541332244873,0.04434572160243988,-0.4432733654975891,0.20177876949310303,-9.555732882071684,-52.296885209688234,30.749859469061853,7.650984764099121,-1.3527796268463135,5.1314592361450195,8.545639991760254,-14.322994232177734,-8.998215675354004
2026-04-02 13:02:31.582,1890.58859349,629378407,right_foot,右脚,D4:22:CD:00:85:22,0.8704652190208435,0.05133785307407379,-0.447358101606369,0.19880986213684082,-8.467812142182247,-53.056860023101684,29.963711326384914,7.639492034912109,-1.171183705329895,5.417481899261475,13.59176254272461,-18.36221694946289,-17.0423526763916
2026-04-02 13:02:31.612,1890.618253448,629411741,right_foot,右脚,D4:22:CD:00:85:22,0.867622971534729,0.05859796702861786,-0.4536977708339691,0.19481995701789856,-7.3592796328504155,-54.1066277735618,29.073272892605118,7.722105979919434,-0.4614279270172119,5.833710670471191,11.47592544555664,-27.217803955078125,-19.43583869934082
2026-04-02 13:02:31.642,1890.648499515,629445075,right_foot,右脚,D4:22:CD:00:85:22,0.8627206683158875,0.06606348603963852,-0.4640691876411438,0.18970556557178497,-6.320093544864323,-55.66862538791674,28.142544538647215,7.8578314781188965,-0.2458438277244568,6.364093780517578,8.044770240783691,-42.969017028808594,-20.947233200073242
2026-04-02 13:02:31.672,1890.678415465,629478409,right_foot,右脚,D4:22:CD:00:85:22,0.8550217747688293,0.07064847648143768,-0.4790284335613251,0.18568341434001923,-6.134888490806849,-57.71438589902075,27.88803116321296,8.225394248962402,1.0251253843307495,6.536569118499756,-1.1181342601776123,-59.07527160644531,-10.233386993408203
2026-04-02 13:02:31.702,1890.708534664,629511743,right_foot,右脚,D4:22:CD:00:85:22,0.8439949750900269,0.07182969152927399,-0.4991217255592346,0.18273013830184937,-7.094236516692915,-60.31526771708687,28.558095896187286,8.29700756072998,0.21906551718711853,6.713560104370117,-11.861556053161621,-77.3853530883789,1.9298181533813477
2026-04-02 13:02:31.732,1890.738447343,629545077,right_foot,右脚,D4:22:CD:00:85:22,0.8285837769508362,0.07577194273471832,-0.5256156921386719,0.177301287651062,-7.941454406542271,-63.883668324912946,29.11215885394859,8.467647552490234,-1.8035404682159424,7.174385070800781,-11.014179229736328,-106.03401947021484,-5.662257194519043
2026-04-02 13:02:31.762,1890.768532303,629578411,right_foot,右脚,D4:22:CD:00:85:22,0.8065620064735413,0.08745364844799042,-0.5606474876403809,0.1657826155424118,-7.174300295281502,-68.96967391343789,28.161251002066624,8.7809419631958,-2.3889875411987305,7.891056537628174,-3.390716075897217,-148.8651123046875,-30.847009658813477
2026-04-02 13:02:31.792,1890.798543025,629611745,right_foot,右脚,D4:22:CD:00:85:22,0.7721147537231445,0.1083468496799469,-0.6094790101051331,0.14364802837371826,-1.9096683676761486,-76.4836910690755,22.583264578057644,9.62697982788086,-3.4600274562835693,9.558826446533203,-2.374812602996826,-219.9589385986328,-66.99300384521484
2026-04-02 13:02:31.852,1890.858416805,629645079,right_foot,右脚,D4:22:CD:00:85:22,0.7253989577293396,0.13488027453422546,-0.6658621430397034,0.11059488356113434,32.197137038930165,-84.78812146521787,-12.184492916497003,12.36023235321045,-4.77726411819458,10.455681800842285,-9.394559860229492,-273.1383361816406,-99.17509460449219
2026-04-02 13:02:31.882,1890.888556376,629678413,right_foot,右脚,D4:22:CD:00:85:22,0.671969473361969,0.16023167967796326,-0.7198436856269836,0.06787928938865662,126.7093343107409,-81.56350849490906,-108.09387359707664,13.08169937133789,-3.050196647644043,7.31090784072876,-30.40567970275879,-287.127197265625,-119.46871185302734
2026-04-02 13:02:31.912,1890.91852009,629711747,right_foot,右脚,D4:22:CD:00:85:22,0.6384759545326233,0.18051768839359283,-0.7472728490829468,0.03667391836643219,136.00983857909068,-75.34623334670924,-118.1945731185432,13.243816375732422,-4.951808452606201,4.295096397399902,-18.360919952392578,-168.95391845703125,-99.78416442871094
2026-04-02 13:02:31.942,1890.948350821,629745081,right_foot,右脚,D4:22:CD:00:85:22,0.6409712433815002,0.19488997757434845,-0.7413027882575989,0.04054278880357742,132.69141917679545,-75.0409407278836,-113.35938067084267,5.408183574676514,-7.116065979003906,7.044857501983643,40.66378402709961,19.052963256835938,-33.220489501953125
2026-04-02 13:02:31.972,1890.978540476,629778415,right_foot,右脚,D4:22:CD:00:85:22,0.6559522151947021,0.19271054863929749,-0.7284601330757141,0.04398992657661438,125.69364646417817,-76.56269370719079,-106.28893863429252,1.1432814598083496,1.0537524223327637,7.044753551483154,-4.206575870513916,67.66134643554688,1.4904131889343262
2026-04-02 13:02:32.002,1891.008493185,629811749,right_foot,右脚,D4:22:CD:00:85:22,0.6844667792320251,0.17296168208122253,-0.7062119245529175,0.05342141538858414,109.55559535296148,-80.14272823377725,-91.063888338795,4.217235565185547,-2.8783669471740723,4.401823997497559,-36.295860290527344,129.15493774414062,50.759647369384766
2026-04-02 13:02:32.032,1891.038521,629845083,right_foot,右脚,D4:22:CD:00:85:22,0.7223145961761475,0.1547122597694397,-0.6692153811454773,0.08047406375408173,64.01863898191016,-82.59910925621548,-44.8325179038029,5.085259914398193,-0.0019496819004416466,4.770792484283447,7.2494049072265625,196.65232849121094,78.04339599609375
2026-04-02 13:02:32.062,1891.068265278,629878417,right_foot,右脚,D4:22:CD:00:85:22,0.7628777623176575,0.12995567917823792,-0.623909056186676,0.10893204808235168,18.376499025776827,-78.59261761401697,1.171186314095973,6.83061408996582,0.34699615836143494,5.75434684753418,-4.7797627449035645,225.97021484375,91.45088958740234
2026-04-02 13:02:32.092,1891.098553041,629911751,right_foot,右脚,D4:22:CD:00:85:22,0.8057072162628174,0.10066284239292145,-0.5682766437530518,0.133282870054245,1.8402193798335247,-70.48647111987314,17.48573638850514,10.569942474365234,-0.022273646667599678,5.816354274749756,-22.61635971069336,257.71466064453125,85.04011535644531
2026-04-02 13:02:32.152,1891.158544982,629945085,right_foot,右脚,D4:22:CD:00:85:22,0.848121166229248,0.06494371592998505,-0.5036178231239319,0.15113455057144165,-4.964405195870501,-60.91370836374298,23.128429506163396,10.856029510498047,-0.5094582438468933,6.315858364105225,-48.839439392089844,282.67962646484375,76.71600341796875
2026-04-02 13:02:32.183,1891.189256623,629978419,right_foot,右脚,D4:22:CD:00:85:22,0.8811835050582886,0.022396380081772804,-0.4396662414073944,0.17235861718654633,-10.37251955635024,-51.49683828143199,27.147801034413014,11.736148834228516,-1.203080654144287,7.500401020050049,-61.19322204589844,268.7929992675781,103.45417022705078
2026-04-02 13:02:32.212,1891.218186123,630011753,right_foot,右脚,D4:22:CD:00:85:22,0.9035536646842957,-0.02675744518637657,-0.3782438635826111,0.19951550662517548,-15.627617211759622,-42.28742590938725,30.97952400002823,14.527450561523438,-0.8959519267082214,8.974043846130371,-72.9751205444336,249.50381469726562,138.03085327148438
2026-04-02 13:02:32.242,1891.248616456,630045087,right_foot,右脚,D4:22:CD:00:85:22,0.9199990630149841,-0.07760443538427353,-0.3134305477142334,0.22212734818458557,-19.613007554527705,-32.835948402105814,32.978937694662,18.59732437133789,-0.3308912515640259,5.333045959472656,-82.49551391601562,254.37158203125,130.6440887451172
2026-04-02 13:02:32.272,1891.278490293,630078421,right_foot,右脚,D4:22:CD:00:85:22,0.9296604990959167,-0.11085230857133865,-0.2604832947254181,0.2357783317565918,-21.391711577926614,-25.59766407636028,33.37617618534266,20.497304916381836,2.4143478870391846,-2.3274142742156982,-47.357147216796875,199.21023559570312,85.58003234863281
2026-04-02 13:02:32.302,1891.308255558,630111755,right_foot,右脚,D4:22:CD:00:85:22,0.9280583262443542,-0.13545110821723938,-0.2467418760061264,0.24388308823108673,-23.834238096339462,-23.073604533647064,34.38095494228586,21.46499252319336,5.15678071975708,-11.51822566986084,-60.86152267456055,60.05388641357422,54.79973220825195
2026-04-02 13:02:32.332,1891.338595217,630145089,right_foot,右脚,D4:22:CD:00:85:22,0.9272924065589905,-0.08560958504676819,-0.2678483724594116,0.2470967173576355,-19.076920664528995,-27.028905031765483,34.4672935669353,16.05147933959961,3.546950578689575,-7.846367359161377,143.8162384033203,-109.18553161621094,-40.43021774291992
2026-04-02 13:02:32.362,1891.368616994,630178423,right_foot,右脚,D4:22:CD:00:85:22,0.918856143951416,-0.03983572497963905,-0.2978535592556,0.2557336091995239,-15.390288874543655,-31.802610702069487,35.51441074728552,2.2059524059295654,1.0289404392242432,12.467166900634766,125.94599914550781,-142.24395751953125,-15.46088981628418
2026-04-02 13:02:32.392,1891.398596697,630211757,right_foot,右脚,D4:22:CD:00:85:22,0.9031928181648254,-0.01012068148702383,-0.34594017267227173,0.2539004981517792,-14.308166891170806,-38.29877222627,36.39416096839663,10.25304126739502,4.334293365478516,10.124732971191406,47.273277282714844,-191.59304809570312,-28.2012882232666
2026-04-02 13:02:32.452,1891.458625249,630245091,right_foot,右脚,D4:22:CD:00:85:22,0.8913570642471313,0.008137725293636322,-0.3795955181121826,0.2476358711719513,-13.700481377803184,-42.901553658413725,36.457557214566414,18.5012149810791,-3.757774829864502,3.807809352874756,19.01927375793457,-131.83338928222656,-31.0174503326416
2026-04-02 13:02:32.482,1891.48859516,630278425,right_foot,右脚,D4:22:CD:00:85:22,0.8857684135437012,0.019161123782396317,-0.39471447467803955,0.2434084117412567,-12.956378916938023,-45.119431082282816,36.13268969246239,8.36168384552002,0.9550429582595825,6.942781448364258,15.179069519042969,-60.27308654785156,-21.148466110229492
2026-04-02 13:02:32.512,1891.51853137,630311759,right_foot,右脚,D4:22:CD:00:85:22,0.880457878112793,0.025112876668572426,-0.4073980152606964,0.24122579395771027,-12.868347858482881,-46.84529010628232,36.23733558581403,7.891284942626953,0.13934050500392914,6.119907379150391,4.4640398025512695,-48.23191452026367,-8.391500473022461
2026-04-02 13:02:32.542,1891.548409412,630345093,right_foot,右脚,D4:22:CD:00:85:22,0.876414954662323,0.027333222329616547,-0.41624853014945984,0.24059660732746124,-13.155424555583558,-47.9675339403212,36.57515211209112,7.463993549346924,-0.8088757395744324,5.902720928192139,-1.5925688743591309,-31.752370834350586,0.15959179401397705
2026-04-02 13:02:32.572,1891.578458571,630378427,right_foot,右脚,D4:22:CD:00:85:22,0.8735624551773071,0.028585366904735565,-0.4217918813228607,0.24117006361484528,-13.436127572250433,-48.65201009855355,36.96337430847086,7.426428318023682,-1.6478936672210693,5.752002716064453,-0.14515437185764313,-19.309415817260742,3.8458094596862793
2026-04-02 13:02:32.602,1891.608383453,630411761,right_foot,右脚,D4:22:CD:00:85:22,0.87153559923172,0.030391132459044456,-0.42520129680633545,0.24229298532009125,-13.521106956474291,-49.10260916367841,37.271925627482474,7.414649963378906,-0.8618690371513367,5.999711990356445,4.040563583374023,-12.228448867797852,3.741771936416626
2026-04-02 13:02:32.662,1891.668351374,630445095,right_foot,右脚,D4:22:CD:00:85:22,0.8684579133987427,0.03293116018176079,-0.4306146800518036,0.24344885349273682,-13.667829515115614,-49.815942166101216,37.68923262430194,7.295689582824707,-1.9608349800109863,5.877073764801025,4.7445173263549805,-20.509021759033203,3.8158910274505615
2026-04-02 13:02:32.662,1891.668478555,630478429,right_foot,右脚,D4:22:CD:00:85:22,0.8648459315299988,0.037325434386730194,-0.43731269240379333,0.24373319745063782,-13.590771713030152,-50.76979141329181,37.95058025268651,7.4515380859375,-1.3851386308670044,5.397353649139404,8.016552925109863,-26.897340774536133,-1.005232810974121
2026-04-02 13:02:32.692,1891.698477075,630511763,right_foot,右脚,D4:22:CD:00:85:22,0.8614048361778259,0.042793337255716324,-0.44385698437690735,0.24318952858448029,-13.279795728905352,-51.76649219172429,37.99624307086763,7.564228057861328,-1.3732573986053467,5.3597259521484375,10.09621810913086,-27.2829647064209,-5.295023441314697
2026-04-02 13:02:32.812,1891.818402041,630545097,right_foot,右脚,D4:22:CD:00:85:22,0.8583811521530151,0.047523383051157,-0.44959691166877747,0.24245791137218475,-12.994400135014223,-52.64542925860708,37.99519667792794,7.738770961761475,-0.9936491250991821,5.345626354217529,8.248994827270508,-23.77314567565918,-5.23477840423584
2026-04-02 13:02:32.812,1891.81856556,630578431,right_foot,右脚,D4:22:CD:00:85:22,0.8558406829833984,0.05091904476284981,-0.4543176591396332,0.24194882810115814,-12.842842122567838,-53.3490379912081,38.04390726808314,7.756958484649658,-0.9317501783370972,5.2024946212768555,5.4283246994018555,-18.964208602905273,-3.1100072860717773
2026-04-02 13:02:32.841,1891.847634284,630611765,right_foot,右脚,D4:22:CD:00:85:22,0.8536337614059448,0.05466603487730026,-0.45863303542137146,0.24078305065631866,-12.540703825878097,-54.030993147052456,37.917183855751155,7.703959941864014,-1.547403335571289,5.089954853057861,5.727238655090332,-17.75041961669922,-5.975154876708984
2026-04-02 13:02:32.843,1891.849482076,630645099,right_foot,右脚,D4:22:CD:00:85:22,0.8521085381507874,0.05977803096175194,-0.46185198426246643,0.2388102114200592,-11.840888627131427,-54.65141487875302,37.44617420692644,7.7212605476379395,-1.2218812704086304,5.069752216339111,9.258710861206055,-14.82440185546875,-11.319933891296387
2026-04-02 13:02:32.872,1891.878344269,630678433,right_foot,右脚,D4:22:CD:00:85:22,0.8504002690315247,0.06601644307374954,-0.4656039774417877,0.23595353960990906,-10.904269248117226,-55.39160751340311,36.75099176970674,7.741475582122803,-1.3681118488311768,5.615662574768066,10.764117240905762,-17.8754940032959,-15.483610153198242
2026-04-02 13:02:32.902,1891.908516517,630711767,right_foot,右脚,D4:22:CD:00:85:22,0.8473589420318604,0.07161924988031387,-0.4721086323261261,0.23230744898319244,-10.210098237335574,-56.44612562007722,36.15267250417787,7.808594703674316,-0.18056440353393555,5.73748254776001,5.713043689727783,-27.834365844726562,-15.099810600280762
2026-04-02 13:02:32.932,1891.938401035,630745101,right_foot,右脚,D4:22:CD:00:85:22,0.8417388796806335,0.07719945907592773,-0.4831421673297882,0.22823159396648407,-9.857773765246783,-58.05947450774087,35.82148951573269,7.752638816833496,-0.7423810362815857,6.033115386962891,1.9544161558151245,-45.42494583129883,-13.141118049621582
2026-04-02 13:02:32.962,1891.968401829,630778435,right_foot,右脚,D4:22:CD:00:85:22,0.8339387774467468,0.08293754607439041,-0.49786075949668884,0.22316297888755798,-9.703838356886266,-60.156551290359225,35.59193036570351,8.302809715270996,-0.4228517413139343,6.147387504577637,-1.5480444431304932,-60.235801696777344,-13.60025691986084
2026-04-02 13:02:33.022,1892.028423338,630811769,right_foot,右脚,D4:22:CD:00:85:22,0.8237475752830505,0.08570343255996704,-0.5161900520324707,0.21827159821987152,-10.53610336656353,-62.60232136893021,36.099397522813426,8.671070098876953,0.6034008264541626,6.40982723236084,-11.861294746398926,-72.49018096923828,-5.128194808959961
2026-04-02 13:02:33.052,1892.058398722,630845103,right_foot,右脚,D4:22:CD:00:85:22,0.8088808655738831,0.08600769191980362,-0.5408508777618408,0.21399761736392975,-12.994017354060688,-65.7522992679767,38.056885173600165,8.42533016204834,-0.26838645339012146,6.847583293914795,-21.124723434448242,-96.86517333984375,6.423223972320557
2026-04-02 13:02:33.082,1892.088394852,630878437,right_foot,右脚,D4:22:CD:00:85:22,0.7873210310935974,0.09161752462387085,-0.5736749768257141,0.20646731555461884,-15.907328651459299,-70.24811265187368,40.614987748523205,8.688407897949219,-2.335108518600464,7.248548984527588,-16.430606842041016,-137.11773681640625,-5.179399013519287
2026-04-02 13:02:33.112,1892.118459775,630911771,right_foot,右脚,D4:22:CD:00:85:22,0.7565064430236816,0.10871083289384842,-0.6158256530761719,0.1914127618074417,-18.113829946022882,-76.74751319979377,42.786103424860045,9.096108436584473,-4.803764343261719,8.434208869934082,-3.834057569503784,-191.4765625,-38.83986282348633
2026-04-02 13:02:33.142,1892.148594855,630945105,right_foot,右脚,D4:22:CD:00:85:22,0.7116532325744629,0.1359683871269226,-0.6700531244277954,0.1615268588066101,-19.415073036881186,-86.04306159172793,43.716789059560725,11.764300346374512,-4.352135181427002,9.309687614440918,-11.453742980957031,-265.417724609375,-85.49982452392578
2026-04-02 13:02:33.202,1892.208482509,630978439,right_foot,右脚,D4:22:CD:00:85:22,0.6612191200256348,0.1658894121646881,-0.7206810712814331,0.1260496824979782,158.1066267164605,-84.19793783849089,-134.24890714043588,12.318359375,-3.2153146266937256,8.406736373901367,-13.186287879943848,-274.0821533203125,-104.18559265136719
2026-04-02 13:02:33.202,1892.208608578,631011773,right_foot,右脚,D4:22:CD:00:85:22,0.6197173595428467,0.1765929013490677,-0.760122537612915,0.08354129642248154,157.14249307581528,-76.31904407737822,-135.7897458891,8.928589820861816,-1.725351095199585,3.7929670810699463,-74.5578384399414,-222.51431274414062,-82.89804077148438
2026-04-02 13:02:33.232,1892.23861196,631045107,right_foot,右脚,D4:22:CD:00:85:22,0.6125490665435791,0.1877438724040985,-0.7646023631095886,0.07013560831546783,152.8853518305932,-74.37562771223847,-131.6730843580513,13.707361221313477,-8.283795356750488,5.484773635864258,-8.30965518951416,-40.85673141479492,-53.401344299316406
2026-04-02 13:02:33.262,1892.268522863,631078441,right_foot,右脚,D4:22:CD:00:85:22,0.6273353099822998,0.19564196467399597,-0.7499200105667114,0.07611994445323944,146.88704563567202,-76.09308160119274,-124.56247463197471,2.402181625366211,-0.13489514589309692,7.123125076293945,26.2699031829834,70.07454681396484,-22.080894470214844
2026-04-02 13:02:33.292,1892.298593841,631111775,right_foot,右脚,D4:22:CD:00:85:22,0.6549667119979858,0.1798727810382843,-0.7298116683959961,0.07771112024784088,136.7642008640577,-79.72444152434572,-115.68977542446876,4.3855204582214355,-1.7773979902267456,5.091163635253906,-43.20769500732422,117.81719970703125,22.499435424804688
2026-04-02 13:02:33.352,1892.358354464,631145109,right_foot,右脚,D4:22:CD:00:85:22,0.6954773664474487,0.1685364544391632,-0.6918777823448181,0.09597746282815933,97.95442956591387,-84.11083323580841,-76.36544640148185,4.668562412261963,-0.49495506286621094,4.636870861053467,5.501250267028809,199.27464294433594,34.35002899169922
2026-04-02 13:02:33.382,1892.388513993,631178443,right_foot,右脚,D4:22:CD:00:85:22,0.7390830516815186,0.1470920294523239,-0.6477862596511841,0.11177148669958115,31.723035421207552,-82.06169451753476,-10.57748608473543,4.089166641235352,0.8203319311141968,4.976577281951904,-24.23040008544922,223.13050842285156,47.98252868652344
2026-04-02 13:02:33.412,1892.418598985,631211777,right_foot,右脚,D4:22:CD:00:85:22,0.7784741520881653,0.12109275907278061,-0.6024466753005981,0.12795490026474,7.990888834559848,-75.68875491544483,12.455791125693084,7.4347405433654785,0.4149812161922455,5.412123680114746,-32.272579193115234,218.7125701904297,60.180599212646484
2026-04-02 13:02:33.472,1892.478408218,631245111,right_foot,右脚,D4:22:CD:00:85:22,0.8178932666778564,0.08806617558002472,-0.5504612922668457,0.14243300259113312,-1.9294864926757407,-67.74755959772243,21.05289307246618,11.15986442565918,-0.3045356869697571,5.98621940612793,-51.704952239990234,238.9094696044922,67.44168853759766
2026-04-02 13:02:33.472,1892.478526287,631278445,right_foot,右脚,D4:22:CD:00:85:22,0.8573054075241089,0.052656903862953186,-0.48778969049453735,0.15593571960926056,-6.800546323293282,-58.516612945673344,24.430571410005,11.978161811828613,-1.2743409872055054,6.363943099975586,-55.001949310302734,269.9641418457031,65.97663116455078
2026-04-02 13:02:33.502,1892.508383798,631311779,right_foot,右脚,D4:22:CD:00:85:22,0.8870872259140015,0.016833767294883728,-0.42518165707588196,0.17892244458198547,-10.852169000875197,-49.496867662203286,27.821103286375706,12.06809139251709,-1.5356276035308838,7.723696708679199,-38.564693450927734,255.6811065673828,99.83792877197266
2026-04-02 13:02:33.532,1892.538516678,631345113,right_foot,右脚,D4:22:CD:00:85:22,0.9055005311965942,-0.02474532462656498,-0.3665364384651184,0.21238461136817932,-15.356987144168933,-40.78988891046357,32.13946084471733,13.932502746582031,-1.160908579826355,8.957770347595215,-42.6656379699707,231.33277893066406,147.53575134277344
2026-04-02 13:02:33.562,1892.568571273,631378447,right_foot,右脚,D4:22:CD:00:85:22,0.9160114526748657,-0.0700111985206604,-0.3132356107234955,0.24063432216644287,-19.362357631520247,-32.69457449677196,35.167021878885144,16.005414962768555,-1.2145999670028687,6.481235504150391,-65.45610046386719,208.24990844726562,141.40391540527344
2026-04-02 13:02:33.592,1892.598534984,631411781,right_foot,右脚,D4:22:CD:00:85:22,0.9254017472267151,-0.10593193024396896,-0.2640189230442047,0.25040754675865173,-21.38924401439001,-25.823153049730404,35.24050572809268,19.54702377319336,0.7082929015159607,-0.29272890090942383,-59.60604476928711,191.6922607421875,73.27552795410156
2026-04-02 13:02:33.652,1892.658518608,631445115,right_foot,右脚,D4:22:CD:00:85:22,0.9276716113090515,-0.14068253338336945,-0.24237562716007233,0.24675439298152924,-24.30190456538896,-22.349910056037338,34.66200291645203,18.3880615234375,5.925814628601074,-8.471725463867188,-94.48719024658203,102.52962493896484,26.05481719970703
2026-04-02 13:02:33.682,1892.68891421,631478449,right_foot,右脚,D4:22:CD:00:85:22,0.9276469349861145,-0.13431505858898163,-0.2523784041404724,0.24028222262859344,-23.887367708395832,-23.809008885404882,34.150247853236806,17.579586029052734,1.9435484409332275,-9.757115364074707,6.269630432128906,-32.50471115112305,-29.94182777404785
2026-04-02 13:02:33.712,1892.718520532,631511783,right_foot,右脚,D4:22:CD:00:85:22,0.9288899898529053,-0.07901889830827713,-0.27609819173812866,0.23385736346244812,-18.285648544794178,-28.422613629409806,32.93017438963646,1.7549710273742676,-5.6165385246276855,10.77775764465332,151.7766876220703,-114.83818817138672,-79.51329040527344
2026-04-02 13:02:33.742,1892.748576815,631545117,right_foot,右脚,D4:22:CD:00:85:22,0.9162845015525818,-0.035529494285583496,-0.31853559613227844,0.24019868671894073,-15.351705948997289,-34.51835370563316,34.17392971300438,5.97515869140625,6.182337284088135,8.426899909973145,107.31190490722656,-182.16680908203125,-21.726415634155273
2026-04-02 13:02:33.772,1892.778536714,631578451,right_foot,右脚,D4:22:CD:00:85:22,0.90267014503479,-0.011976011097431183,-0.36189714074134827,0.23253712058067322,-14.436543783974503,-40.37426929930486,34.22412551992166,13.006793975830078,1.75100839138031,9.384002685546875,27.85430145263672,-167.95660400390625,-43.030616760253906
2026-04-02 13:02:33.802,1892.808431864,631611785,right_foot,右脚,D4:22:CD:00:85:22,0.892015814781189,0.010497946292161942,-0.38993585109710693,0.22835884988307953,-12.902346983760841,-44.463309995530125,34.01131163888788,13.605696678161621,-3.5588736534118652,5.534447193145752,41.21759033203125,-115.70095825195312,-32.54334259033203
2026-04-02 13:02:33.862,1892.868482385,631645119,right_foot,右脚,D4:22:CD:00:85:22,0.8843652009963989,0.0217204038053751,-0.4086192548274994,0.22462615370750427,-12.311232137272727,-47.09597712484008,33.88528451908406,9.253121376037598,1.2443444728851318,6.114994525909424,14.553378105163574,-73.96756744384766,-18.769943237304688
2026-04-02 13:02:33.862,1892.868607414,631678453,right_foot,右脚,D4:22:CD:00:85:22,0.8794289231300354,0.026656389236450195,-0.42004647850990295,0.22238458693027496,-12.22827086155013,-48.64742350450229,33.92634153857933,8.231847763061523,-1.0112676620483398,5.439553260803223,2.8890533447265625,-43.167728424072266,-7.979052543640137
2026-04-02 13:02:33.892,1892.898674501,631711787,right_foot,右脚,D4:22:CD:00:85:22,0.8758695721626282,0.031146734952926636,-0.42777931690216064,0.22110465168952942,-12.022245724732572,-49.74101369298463,33.92463045377635,7.349730968475342,-0.5523386001586914,6.077991008758545,5.669027805328369,-29.67710304260254,-5.8682684898376465
2026-04-02 13:02:33.952,1892.958654939,631745121,right_foot,右脚,D4:22:CD:00:85:22,0.8725078701972961,0.032158687710762024,-0.43422067165374756,0.2216937094926834,-12.392151731514257,-50.5320954060694,34.37948474073784,7.383871555328369,-0.36958760023117065,6.111584663391113,-1.0991709232330322,-22.80666732788086,4.577654838562012
2026-04-02 13:02:33.982,1892.98862956,631778455,right_foot,右脚,D4:22:CD:00:85:22,0.869676947593689,0.03211895748972893,-0.43893885612487793,0.2235238254070282,-12.90495646281378,-51.06221343291842,35.01240499408064,7.513935089111328,-1.1697615385055542,5.805115222930908,-1.1325414180755615,-16.048580169677734,9.256567001342773
2026-04-02 13:02:34.012,1893.018471922,631811789,right_foot,右脚,D4:22:CD:00:85:22,0.866880476474762,0.03216975927352905,-0.44355490803718567,0.22526028752326965,-13.405030995956107,-51.5832162038409,35.63305669197351,7.404395580291748,-1.580689549446106,5.779041767120361,-0.8886878490447998,-15.887802124023438,8.75249195098877
2026-04-02 13:02:34.042,1893.048385534,631845123,right_foot,右脚,D4:22:CD:00:85:22,0.8635361194610596,0.0323205292224884,-0.4496195614337921,0.2260589599609375,-13.951039012622541,-52.29202719355726,36.213935900067845,7.469734191894531,-1.067149043083191,5.5337324142456055,-3.04353404045105,-21.345064163208008,6.335419654846191
2026-04-02 13:02:34.072,1893.078540771,631878457,right_foot,右脚,D4:22:CD:00:85:22,0.8610591888427734,0.032411813735961914,-0.45378509163856506,0.22716791927814484,-14.388997884250273,-52.76853700777942,36.72471342990738,7.498401641845703,-1.5639930963516235,5.480285167694092,-1.3397536277770996,-14.400561332702637,6.4309844970703125
2026-04-02 13:02:34.102,1893.108653054,631911791,right_foot,右脚,D4:22:CD:00:85:22,0.8596841096878052,0.03413940966129303,-0.4560331702232361,0.2276206910610199,-14.357717894157894,-53.094865811365885,36.8617109474892,7.570038318634033,-1.8206349611282349,5.107607364654541,3.892862558364868,-8.458192825317383,0.7929540276527405
2026-04-02 13:02:34.162,1893.168633423,631945125,right_foot,右脚,D4:22:CD:00:85:22,0.859451949596405,0.03645015135407448,-0.4560384750366211,0.22812806069850922,-14.04236006006614,-53.17951034218628,36.78617214109763,7.573708534240723,-1.4857693910598755,5.345186233520508,7.350975036621094,-0.570907473564148,-1.182097315788269
