local_time,arrival_time_monotonic,timestamp_us,role,role_label,mac_address,quat_w,quat_x,quat_y,quat_z,euler_x,euler_y,euler_z,acc_x,acc_y,acc_z,gyro_x,gyro_y,gyro_z
2026-04-02 13:03:43.369,1962.375431142,607450792,left_foot,左脚,D4:22:CD:00:84:61,0.22944337129592896,0.44684216380119324,-0.09173648804426193,0.8598093390464783,4.6315993755669345,-54.144312745938535,147.74892621335135,-0.7342430353164673,-4.4458489418029785,2.26999831199646,-0.40732598304748535,5.6660027503967285,-1.4287489652633667
2026-04-02 13:03:43.398,1962.404563364,607484126,left_foot,左脚,D4:22:CD:00:84:61,0.2206679880619049,0.4530702531337738,-0.1083712950348854,0.8569066524505615,1.4400761659837273,-55.51816086523873,150.36026715749932,7.756620407104492,0.4808626174926758,5.952547073364258,0.4318714439868927,-31.66526985168457,2.0460708141326904
2026-04-02 13:03:43.428,1962.43454317,607517460,left_foot,左脚,D4:22:CD:00:84:61,0.21764078736305237,0.460369348526001,-0.11140798032283783,0.8533936738967896,1.0641705592220798,-56.537456020368204,150.81343434635104,7.891450881958008,0.21974287927150726,5.8988938331604,0.4542885720729828,-42.75873565673828,7.850677490234375
2026-04-02 13:03:43.488,1962.494484257,607550794,left_foot,左脚,D4:22:CD:00:84:61,0.21385471522808075,0.4703391492366791,-0.11533114314079285,0.8483784794807434,0.5912785619981994,-57.92777026058297,151.3766027793697,8.038800239562988,-0.20864343643188477,6.227821350097656,0.013015082105994225,-57.700687408447266,9.99682331085205
2026-04-02 13:03:43.518,1962.524593712,607584128,left_foot,左脚,D4:22:CD:00:84:61,0.20898589491844177,0.48483431339263916,-0.11934878677129745,0.8408429622650146,0.22168060451976523,-59.90818892539638,151.95692112911473,8.447474479675293,-0.36559543013572693,6.647878170013428,6.383958339691162,-77.4951171875,5.298342227935791
2026-04-02 13:03:43.548,1962.554587843,607617462,left_foot,左脚,D4:22:CD:00:84:61,0.20357632637023926,0.5059648156166077,-0.12409987300634384,0.8289483785629272,0.03260059849938679,-62.793573914228055,152.3843954400713,8.676318168640137,-0.8118336200714111,6.8131561279296875,8.467050552368164,-108.33502197265625,1.1206045150756836
2026-04-02 13:03:43.578,1962.584466379,607650796,left_foot,左脚,D4:22:CD:00:84:61,0.19728320837020874,0.5357426404953003,-0.13012678921222687,0.8106331825256348,0.06076976230293468,-66.91514965965091,152.60359298030616,8.86345100402832,0.44360679388046265,7.453138828277588,9.727639198303223,-148.03024291992188,-3.3354246616363525
2026-04-02 13:03:43.608,1962.614557908,607684130,left_foot,左脚,D4:22:CD:00:84:61,0.18823876976966858,0.5755301117897034,-0.13837075233459473,0.783699631690979,-0.039836788136644104,-72.58818571541161,153.01693412856403,9.080763816833496,0.7110999822616577,8.199865341186523,8.871880531311035,-199.675048828125,3.63543701171875
2026-04-02 13:03:43.638,1962.644304078,607717464,left_foot,左脚,D4:22:CD:00:84:61,0.17373156547546387,0.6319889426231384,-0.14731454849243164,0.7407469153404236,0.48923812956983526,-80.92177681995345,153.1840554579505,11.653725624084473,-0.43842142820358276,9.671439170837402,20.595252990722656,-286.9519348144531,2.828826665878296
2026-04-02 13:03:43.668,1962.674474163,607750798,left_foot,左脚,D4:22:CD:00:84:61,0.15316468477249146,0.6948074698448181,-0.1604519486427307,0.6841333508491516,-158.4914868747093,-88.95273827138142,-47.134507367954605,13.414877891540527,2.9618334770202637,11.22065544128418,19.77545166015625,-349.0079650878906,18.01276969909668
2026-04-02 13:03:43.698,1962.704536694,607784132,left_foot,左脚,D4:22:CD:00:84:61,0.11926303058862686,0.7486286163330078,-0.14776766300201416,0.6352136135101318,-176.81378305602158,-80.51352146580975,-25.029704491324864,10.261333465576172,-2.9091978073120117,4.788231372833252,112.58202362060547,-309.9299011230469,1.3992822170257568
2026-04-02 13:03:43.728,1962.734589362,607817466,left_foot,左脚,D4:22:CD:00:84:61,0.10359480232000351,0.7607601881027222,-0.12546075880527496,0.6283087134361267,-179.98951862186672,-79.10599419667294,-18.737943292139896,16.229511260986328,11.094710350036621,8.328916549682617,91.70531463623047,-94.55322265625,-24.07498550415039
2026-04-02 13:03:43.818,1962.824431824,607850800,left_foot,左脚,D4:22:CD:00:84:61,0.12182189524173737,0.7301930785179138,-0.13838958740234375,0.6578952074050903,-177.71047980059382,-83.98720674135804,-23.52443882131496,4.148863792419434,0.34615057706832886,8.089311599731445,-70.54859161376953,90.64393615722656,40.46326446533203
2026-04-02 13:03:43.818,1962.824676712,607884134,left_foot,左脚,D4:22:CD:00:84:61,0.11143209785223007,0.6950719952583313,-0.12475355714559555,0.6992097496986389,-82.35918094841378,-88.86969318620048,-116.86962612891419,2.8296003341674805,-2.751668691635132,5.071348190307617,61.980777740478516,130.48155212402344,37.591148376464844
2026-04-02 13:03:43.848,1962.854391467,607917468,left_foot,左脚,D4:22:CD:00:84:61,0.10602648556232452,0.6419731974601746,-0.11432848125696182,0.7507050037384033,-13.357257234382756,-81.15520560015695,175.37520482162515,5.541814804077148,1.714670181274414,3.873839855194092,37.57646560668945,205.48870849609375,41.916744232177734
2026-04-02 13:03:43.878,1962.884393552,607950802,left_foot,左脚,D4:22:CD:00:84:61,0.11229325085878372,0.5748533606529236,-0.10117145627737045,0.8041754961013794,-6.0225912594961315,-71.31383487187327,168.42423368882453,6.260244369506836,-1.6508110761642456,3.703885078430176,12.849740028381348,258.31268310546875,10.679543495178223
2026-04-02 13:03:43.908,1962.914562965,607984136,left_foot,左脚,D4:22:CD:00:84:61,0.12330546975135803,0.5009838342666626,-0.08218277245759964,0.8526763916015625,-1.962515042889854,-61.00018572553228,164.6990945237659,8.333565711975098,0.05713078752160072,4.304680824279785,15.1254301071167,277.29229736328125,-16.60597801208496
2026-04-02 13:03:43.938,1962.944488315,608017470,left_foot,左脚,D4:22:CD:00:84:61,0.13608455657958984,0.42410680651664734,-0.06022730469703674,0.8933013081550598,0.7083643007888634,-50.72370838811853,162.34065475133124,9.946746826171875,-1.0752278566360474,4.79341459274292,17.55012321472168,280.4189758300781,-31.050996780395508
2026-04-02 13:03:43.968,1962.974420309,608050804,left_foot,左脚,D4:22:CD:00:84:61,0.1511656641960144,0.34921881556510925,-0.032988451421260834,0.9241791367530823,3.385947354522026,-40.95414645991603,160.1563425552249,12.34671401977539,0.21293839812278748,5.7807817459106445,30.231319427490234,269.2846374511719,-52.350669860839844
2026-04-02 13:03:43.998,1963.004521914,608084138,left_foot,左脚,D4:22:CD:00:84:61,0.17786775529384613,0.2685414254665375,-0.006657734047621489,0.9466808438301086,5.535249562137577,-30.718081377598416,157.19650038393917,16.52434539794922,1.4024924039840698,7.6470842361450195,9.94953441619873,285.607666015625,-92.87149810791016
2026-04-02 13:03:44.028,1963.034593563,608117472,left_foot,左脚,D4:22:CD:00:84:61,0.20659132301807404,0.18248334527015686,0.023891031742095947,0.9609627723693848,7.414293523073301,-19.92854201146791,154.42968836369056,20.01685333251953,-1.488635778427124,6.571563720703125,18.715652465820312,306.36444091796875,-109.46044921875
2026-04-02 13:03:44.088,1963.094551633,608150806,left_foot,左脚,D4:22:CD:00:84:61,0.21515049040317535,0.10624758899211884,0.05675346404314041,0.969123899936676,9.11120129979719,-10.457901161189856,154.13051734815986,22.347808837890625,2.9888341426849365,-1.7312488555908203,47.31753158569336,283.45623779296875,-49.63943862915039
2026-04-02 13:03:44.118,1963.124545938,608184140,left_foot,左脚,D4:22:CD:00:84:61,0.22311942279338837,0.07182297855615616,0.08040445297956467,0.9688109159469604,10.885890461642955,-5.928433392849516,153.49618252042885,18.745553970336914,-6.421440124511719,-12.229391098022461,48.542694091796875,144.30616760253906,-44.29262161254883
2026-04-02 13:03:44.148,1963.154414074,608217474,left_foot,左脚,D4:22:CD:00:84:61,0.22935032844543457,0.0897003561258316,0.0636180192232132,0.9671118259429932,9.551506758842862,-8.29783933643399,152.62310005241062,17.991867065429688,0.7380639910697937,-15.188882827758789,-44.43526077270508,-53.13962936401367,-16.66807746887207
2026-04-02 13:03:44.178,1963.184388578,608250808,left_foot,左脚,D4:22:CD:00:84:61,0.2259446233510971,0.12753452360630035,0.023053018376231194,0.9654804468154907,6.033568609267653,-13.641542533714595,152.9346821431651,5.580002307891846,1.421379566192627,11.368179321289062,-105.53107452392578,-132.013427734375,27.767667770385742
2026-04-02 13:03:44.208,1963.214431383,608284142,left_foot,左脚,D4:22:CD:00:84:61,0.23685984313488007,0.18203261494636536,-0.009473742917180061,0.9542913436889648,4.175304308649459,-20.60431439619201,151.36192279688274,8.248675346374512,-4.903875350952148,7.525569438934326,-70.66553497314453,-188.47525024414062,-28.027790069580078
2026-04-02 13:03:44.238,1963.244372026,608317476,left_foot,左脚,D4:22:CD:00:84:61,0.23795820772647858,0.23259975016117096,-0.025843851268291473,0.9426588416099548,3.9812508445600234,-26.796548979717137,150.71656039235455,18.713743209838867,-0.22298629581928253,5.703403949737549,-13.11520004272461,-162.61941528320312,-6.360865592956543
2026-04-02 13:03:44.268,1963.274352532,608350810,left_foot,左脚,D4:22:CD:00:84:61,0.23210427165031433,0.2601126730442047,-0.037414222955703735,0.9365197420120239,3.3644200036699408,-30.30276472971536,151.24963924326022,10.199727058410645,0.5659876465797424,5.841573238372803,-10.938980102539062,-77.54573059082031,19.15294075012207
2026-04-02 13:03:44.298,1963.304380375,608384144,left_foot,左脚,D4:22:CD:00:84:61,0.22763822972774506,0.28017348051071167,-0.04686605930328369,0.9313899874687195,2.748211961777194,-32.90437222921205,151.71980714698577,8.712214469909668,-0.8946967124938965,5.678976058959961,-10.856317520141602,-51.66706085205078,14.680810928344727
2026-04-02 13:03:44.328,1963.334426112,608417478,left_foot,左脚,D4:22:CD:00:84:61,0.22470182180404663,0.2943550646305084,-0.05280270799994469,0.927402913570404,2.395107120477559,-34.72938935315515,152.01132101396877,8.11920166015625,-0.7711591124534607,5.717236042022705,-5.0690412521362305,-29.821821212768555,8.183101654052734
2026-04-02 13:03:44.388,1963.39441368,608450812,left_foot,左脚,D4:22:CD:00:84:61,0.22320395708084106,0.3051877021789551,-0.05544013902544975,0.9241034388542175,2.394757544329684,-36.07180952886037,152.06233433555107,7.479726314544678,-0.5894001126289368,6.090030670166016,1.7538975477218628,-16.77220916748047,1.3105846643447876
2026-04-02 13:03:44.418,1963.424442028,608484146,left_foot,左脚,D4:22:CD:00:84:61,0.22070451080799103,0.3152669072151184,-0.059289127588272095,0.9210761785507202,2.159124750620656,-37.36859343271371,152.31991250438642,7.637557029724121,0.9344571828842163,5.803027629852295,-1.5120714902877808,-16.49073028564453,6.1224446296691895
2026-04-02 13:03:44.448,1963.454514927,608517480,left_foot,左脚,D4:22:CD:00:84:61,0.2186315804719925,0.3194194436073303,-0.06341691315174103,0.9198639988899231,1.6721133822131624,-37.979155682107695,152.68478798090408,7.729132652282715,-0.8761042952537537,5.794936180114746,-7.074943542480469,3.124610424041748,7.862250328063965
2026-04-02 13:03:44.478,1963.484456839,608550814,left_foot,左脚,D4:22:CD:00:84:61,0.21894928812980652,0.32297131419181824,-0.06462041288614273,0.918463408946991,1.662421462661016,-38.43100656959371,152.60396317650228,7.376262187957764,-0.37767595052719116,6.137945652008057,-0.7387540340423584,6.589022636413574,-3.000075578689575
2026-04-02 13:03:44.508,1963.514413239,608584148,left_foot,左脚,D4:22:CD:00:84:61,0.2194199562072754,0.32628634572029114,-0.06613034754991531,0.9170708656311035,1.6113547995443822,-38.86414952891791,152.52004494084602,7.545412540435791,0.20061446726322174,5.81112813949585,-2.323296546936035,2.0448191165924072,-2.7293410301208496
2026-04-02 13:03:44.539,1963.545420618,608617482,left_foot,左脚,D4:22:CD:00:84:61,0.21923044323921204,0.32879921793937683,-0.06832292675971985,0.9160574674606323,1.4046641645324935,-39.2240662056671,152.58174131449985,7.434061527252197,0.2841642498970032,5.930882930755615,-4.705727577209473,-3.7928524017333984,1.206278920173645
2026-04-02 13:03:44.568,1963.574494912,608650816,left_foot,左脚,D4:22:CD:00:84:61,0.21962706744670868,0.33216580748558044,-0.06953820586204529,0.9146553874015808,1.3916754810238752,-39.65618805520266,152.49370341384238,7.513165473937988,-0.5441300272941589,6.020130157470703,-1.9212048053741455,-9.857707977294922,-1.9786349534988403
2026-04-02 13:03:44.598,1963.604439234,608684150,left_foot,左脚,D4:22:CD:00:84:61,0.2204497754573822,0.33633458614349365,-0.0697292611002922,0.9129177927970886,1.572589495915694,-40.153318676541105,152.27362888723653,7.548383712768555,0.08092521131038666,5.818475246429443,1.2882102727890015,-13.148116111755371,-4.858845233917236
2026-04-02 13:03:44.659,1963.665310238,608717484,left_foot,左脚,D4:22:CD:00:84:61,0.21981146931648254,0.3407350182533264,-0.07184446603059769,0.9112743139266968,1.425897348358153,-40.73721222656732,152.34768887531004,7.423435688018799,0.8517367243766785,5.802690505981445,-2.895840644836426,-15.98791790008545,2.0060293674468994
2026-04-02 13:03:44.689,1963.695173499,608750818,left_foot,左脚,D4:22:CD:00:84:61,0.21833008527755737,0.3467494249343872,-0.07577893882989883,0.9090404510498047,1.0445825453166293,-41.5679672967478,152.5929435214097,7.43851900100708,0.0133993960916996,6.07790994644165,-6.548033714294434,-23.471057891845703,5.949700355529785
2026-04-02 13:03:44.718,1963.724364878,608784152,left_foot,左脚,D4:22:CD:00:84:61,0.2162369340658188,0.3566049635410309,-0.08196704834699631,0.9051827788352966,0.4563360671332987,-42.92449398664064,152.949684792869,7.438357830047607,0.21839159727096558,6.3255934715271,-10.401159286499023,-39.32685089111328,8.331498146057129
2026-04-02 13:03:44.748,1963.754381294,608817486,left_foot,左脚,D4:22:CD:00:84:61,0.2132803201675415,0.3707500696182251,-0.08875929564237595,0.8995431661605835,-0.1242506194078574,-44.819239852516255,153.37435761964534,7.661365509033203,-0.1894487887620926,6.330765247344971,-8.535055160522461,-55.58449172973633,9.22546100616455
2026-04-02 13:03:44.778,1963.784369839,608850820,left_foot,左脚,D4:22:CD:00:84:61,0.20800252258777618,0.3897112011909485,-0.09568437933921814,0.8920229077339172,-0.725391343127087,-47.31293251789061,154.06631459206798,7.936769962310791,-0.15974201261997223,7.23381233215332,-3.028679370880127,-73.70276641845703,13.723920822143555
2026-04-02 13:03:44.808,1963.814410956,608884154,left_foot,左脚,D4:22:CD:00:84:61,0.20191019773483276,0.4132978618144989,-0.10261517763137817,0.8819793462753296,-1.2683913114370022,-50.396853131117105,154.80795155266185,8.569896697998047,-1.0328381061553955,7.519353866577148,0.5240061283111572,-91.56560516357422,12.901989936828613
2026-04-02 13:03:44.838,1963.84430863,608917488,left_foot,左脚,D4:22:CD:00:84:61,0.19663457572460175,0.44604921340942383,-0.10894370824098587,0.8663178086280823,-1.3215771180001772,-54.65511797437959,155.10659247375972,8.467212677001953,-1.1719975471496582,7.8594255447387695,5.5788044929504395,-126.66548919677734,2.4265496730804443
2026-04-02 13:03:44.868,1963.874392099,608950822,left_foot,左脚,D4:22:CD:00:84:61,0.18990696966648102,0.4926122725009918,-0.11745107173919678,0.8411146998405457,-1.2324317384452566,-60.843971453106775,155.2778782279207,9.024374008178711,0.489413857460022,9.592806816101074,7.0814337730407715,-184.5391387939453,-1.534733772277832
2026-04-02 13:03:44.898,1963.904462105,608984156,left_foot,左脚,D4:22:CD:00:84:61,0.17516738176345825,0.5564734935760498,-0.13315995037555695,0.8012005686759949,-3.054927886846229,-69.77529555464474,157.4652533002579,9.60988998413086,1.6793464422225952,11.837528228759766,5.169427871704102,-267.65557861328125,17.276426315307617
2026-04-02 13:03:44.928,1963.934371271,609017490,left_foot,左脚,D4:22:CD:00:84:61,0.14551717042922974,0.6354067325592041,-0.16285239160060883,0.7406497597694397,-21.984655642111296,-81.3491939908869,176.72244297596066,12.796417236328125,5.530973434448242,13.594016075134277,-5.2276201248168945,-364.43548583984375,65.92382049560547
2026-04-02 13:03:45.018,1964.024837219,609050824,left_foot,左脚,D4:22:CD:00:84:61,0.10511286556720734,0.7106562256813049,-0.18898598849773407,0.66948002576828,-128.1774715642771,-82.42355186780676,-75.88145361519952,9.470251083374023,-0.5137101411819458,7.006508827209473,19.57439613342285,-382.73809814453125,82.40364837646484
2026-04-02 13:03:45.019,1964.025958777,609084158,left_foot,左脚,D4:22:CD:00:84:61,0.07503275573253632,0.7472543120384216,-0.1768881380558014,0.6361538171768188,-147.80640376759018,-77.76379437257575,-52.834730468628,16.742158889770508,1.9531844854354858,5.277238368988037,92.9666519165039,-180.10243225097656,3.823390483856201
2026-04-02 13:03:45.048,1964.054386304,609117492,left_foot,左脚,D4:22:CD:00:84:61,0.09490086883306503,0.7300212979316711,-0.17967860400676727,0.6525170803070068,-143.66678230305448,-80.68233132507581,-58.79936948865806,6.805016994476318,5.426486015319824,8.180378913879395,-51.623146057128906,91.82992553710938,-21.507442474365234
2026-04-02 13:03:45.078,1964.084412137,609150826,left_foot,左脚,D4:22:CD:00:84:61,0.10778731852769852,0.6997653245925903,-0.18003365397453308,0.6828603744506836,-114.92903222394267,-83.9851060767829,-88.58958957751368,1.349230408668518,-1.9271514415740967,5.030337810516357,-24.265077590942383,152.58580017089844,0.6346369981765747
2026-04-02 13:03:45.108,1964.1144173,609184160,left_foot,左脚,D4:22:CD:00:84:61,0.11283966898918152,0.6633063554763794,-0.17207469046115875,0.7195014953613281,-58.150873688208705,-83.38036553039068,-145.13377426832494,4.659775257110596,0.08741875737905502,3.6861791610717773,15.701626777648926,180.57106018066406,5.129159927368164
2026-04-02 13:03:45.138,1964.144283133,609217494,left_foot,左脚,D4:22:CD:00:84:61,0.1303551197052002,0.6085132360458374,-0.16808979213237762,0.7645031809806824,-25.862169052652096,-76.96773521501437,-178.66443626664645,6.0901641845703125,0.46010568737983704,3.808713674545288,-24.754547119140625,250.98416137695312,-2.561203956604004
2026-04-02 13:03:45.168,1964.174434301,609250828,left_foot,左脚,D4:22:CD:00:84:61,0.1553334891796112,0.548063337802887,-0.15571270883083344,0.8070017695426941,-13.011823579619257,-68.89955828317339,167.15599754946982,7.0960001945495605,-0.9984972476959229,4.383732795715332,-22.29286003112793,268.764404296875,-37.64873504638672
2026-04-02 13:03:45.198,1964.204383189,609284162,left_foot,左脚,D4:22:CD:00:84:61,0.17450648546218872,0.4848215579986572,-0.13588865101337433,0.846185564994812,-7.027082904611191,-60.21836950056611,160.77317959504794,9.451574325561523,0.5001367926597595,4.717016696929932,7.160386562347412,271.093505859375,-35.35736846923828
2026-04-02 13:03:45.228,1964.234342874,609317496,left_foot,左脚,D4:22:CD:00:84:61,0.18392635881900787,0.42162689566612244,-0.10446624457836151,0.881753146648407,-2.6786571907659273,-51.441294318782205,157.72557236021976,12.770550727844238,1.068512201309204,5.299247741699219,54.45249557495117,267.4888916015625,-29.002012252807617
2026-04-02 13:03:45.288,1964.29435859,609350830,left_foot,左脚,D4:22:CD:00:84:61,0.1998436450958252,0.3487113118171692,-0.065523661673069,0.9133288264274597,1.5071554175533266,-41.5417172514512,154.74381791451572,16.61465072631836,2.206721067428589,6.558585166931152,60.252506256103516,298.5270080566406,-58.65184020996094
2026-04-02 13:03:45.318,1964.324252399,609384164,left_foot,左脚,D4:22:CD:00:84:61,0.2185710072517395,0.27299973368644714,-0.01235776674002409,0.9367738366127014,6.4513855918943666,-31.123204882495468,151.93471134114097,17.33458709716797,-0.6004524230957031,6.350481986999512,97.84087371826172,308.25787353515625,-89.56688690185547
2026-04-02 13:03:45.348,1964.354364819,609417498,left_foot,左脚,D4:22:CD:00:84:61,0.21755918860435486,0.2099984586238861,0.04855263978242874,0.951951265335083,11.455403046009861,-22.252591535119333,151.99322852314262,22.303739547729492,-0.39949747920036316,1.0667908191680908,150.57972717285156,264.7244873046875,-40.02058410644531
2026-04-02 13:03:45.378,1964.3843326,609450832,left_foot,左脚,D4:22:CD:00:84:61,0.2098592072725296,0.1682146191596985,0.09638520330190659,0.9583178162574768,15.434435868825503,-16.376707025781815,153.06172220321105,20.861356735229492,-2.8792672157287598,-8.995326042175293,129.85960388183594,180.56582641601562,-11.87098503112793
2026-04-02 13:03:45.408,1964.414402072,609484166,left_foot,左脚,D4:22:CD:00:84:61,0.2270193099975586,0.16689911484718323,0.10254157334566116,0.9539875984191895,16.382592281532833,-15.776256855686997,150.94361174954358,18.475749969482422,-2.77451753616333,-14.307957649230957,10.87503719329834,3.1075663566589355,-64.14055633544922
2026-04-02 13:03:45.438,1964.444349515,609517500,left_foot,左脚,D4:22:CD:00:84:61,0.24155840277671814,0.18653284013271332,0.026075445115566254,0.951932430267334,8.555104810296246,-20.031441213887977,150.0091613713536,5.929363250732422,3.7683041095733643,9.375542640686035,-243.39111328125,-127.62425994873047,1.0647363662719727
2026-04-02 13:03:45.468,1964.474468704,609550834,left_foot,左脚,D4:22:CD:00:84:61,0.2623573839664459,0.2205025553703308,-0.03226369246840477,0.9388856887817383,3.501865876162244,-25.529934502768853,147.98198147162066,5.036545276641846,-11.35440444946289,5.96821403503418,-175.05929565429688,-167.34458923339844,-38.71070861816406
2026-04-02 13:03:45.498,1964.504253665,609584168,left_foot,左脚,D4:22:CD:00:84:61,0.2700820863246918,0.26511090993881226,-0.052363645285367966,0.9241374135017395,3.1115605242545437,-31.217133203918017,146.54819957587614,11.40761661529541,-9.38262939453125,8.244524955749512,-31.881967544555664,-169.89439392089844,-28.264060974121094
2026-04-02 13:03:45.528,1964.534471064,609617502,left_foot,左脚,D4:22:CD:00:84:61,0.266653448343277,0.3016420006752014,-0.06653453409671783,0.9129518866539001,2.7863710333736624,-35.891531433358516,146.5335312324494,15.68955135345459,8.15573787689209,5.238748550415039,-9.666434288024902,-137.3626708984375,6.486972808837891
2026-04-02 13:03:45.588,1964.594465506,609650836,left_foot,左脚,D4:22:CD:00:84:61,0.25910377502441406,0.3211304843425751,-0.08332756161689758,0.907081663608551,1.1197034658501965,-38.73828546670267,147.722854947256,9.920416831970215,-0.8586920499801636,5.308833599090576,-28.190021514892578,-81.56637573242188,31.01536750793457
2026-04-02 13:03:45.618,1964.624292947,609684170,left_foot,左脚,D4:22:CD:00:84:61,0.2529858350753784,0.3335435688495636,-0.09496767818927765,0.9031766653060913,-0.20984967244002892,-40.582963936723274,148.78175976087385,9.023140907287598,-2.96962571144104,5.623753547668457,-19.39342498779297,-52.3617057800293,24.627843856811523
2026-04-02 13:03:45.648,1964.654383411,609717504,left_foot,左脚,D4:22:CD:00:84:61,0.2513178288936615,0.3411540389060974,-0.09700918197631836,0.900579035282135,-0.249014472782201,-41.54687403942984,148.90961147078465,8.260357856750488,-2.0813441276550293,5.7778730392456055,1.6254136562347412,-26.197139739990234,2.4605748653411865
2026-04-02 13:03:45.678,1964.684443336,609750838,left_foot,左脚,D4:22:CD:00:84:61,0.25060030817985535,0.3464399576187134,-0.09712181240320206,0.8987471461296082,-0.07267237878064524,-42.175302336619566,148.86758131353398,7.7881598472595215,0.7778927087783813,5.690213680267334,4.741176128387451,-16.18535804748535,-1.3256034851074219
2026-04-02 13:03:45.708,1964.714460524,609784172,left_foot,左脚,D4:22:CD:00:84:61,0.24854031205177307,0.3487853705883026,-0.10008228570222855,0.8980870246887207,-0.4970429434751438,-42.549584274050986,149.2553079669355,7.684080123901367,0.2915666103363037,5.741593360900879,-4.649580478668213,-8.661677360534668,8.243162155151367
2026-04-02 13:03:45.739,1964.74522347,609817506,left_foot,左脚,D4:22:CD:00:84:61,0.24736784398555756,0.34963512420654297,-0.10177912563085556,0.8978894352912903,-0.7637889397909555,-42.70479216491714,149.4929169217514,7.700305461883545,-0.5778042674064636,5.827258110046387,-2.9398531913757324,-2.150148868560791,4.9090704917907715
2026-04-02 13:03:45.768,1964.774508846,609850840,left_foot,左脚,D4:22:CD:00:84:61,0.24688920378684998,0.34906578063964844,-0.10249068588018417,0.8981618285179138,-0.915137921127189,-42.659706127270475,149.61734106852725,7.671442031860352,-0.008099676109850407,5.506007671356201,-1.7736605405807495,3.8486640453338623,2.4796907901763916
2026-04-02 13:03:45.828,1964.83423156,609884174,left_foot,左脚,D4:22:CD:00:84:61,0.24600161612033844,0.348067045211792,-0.10441185534000397,0.8985715508460999,-1.276120202374795,-42.60165028383612,149.8761912830349,7.493526935577393,0.041594840586185455,5.719809532165527,-5.350428104400635,4.145813465118408,5.479755878448486
2026-04-02 13:03:45.829,1964.835316031,609917508,left_foot,左脚,D4:22:CD:00:84:61,0.2450377196073532,0.35013484954833984,-0.10710065811872482,0.8977147936820984,-1.6200420023505946,-42.93198240658236,150.10231685114113,7.4703688621521,-0.5010493397712708,6.074836254119873,-5.516670227050781,-7.661557197570801,4.484505653381348
2026-04-02 13:03:45.888,1964.894589756,609950842,left_foot,左脚,D4:22:CD:00:84:61,0.24462538957595825,0.35402917861938477,-0.10871662944555283,0.896104097366333,-1.7075618636044203,-43.44702605906805,150.1423641401071,7.7075605392456055,-0.4008465111255646,5.738042831420898,-1.6265450716018677,-13.294901847839355,0.1958768218755722
2026-04-02 13:03:45.918,1964.924577761,609984176,left_foot,左脚,D4:22:CD:00:84:61,0.24358892440795898,0.35863131284713745,-0.11142338812351227,0.89422208070755,-1.9590573181759168,-44.08102138369445,150.3175211396652,7.535465240478516,0.3651554584503174,5.77717399597168,-3.760697603225708,-17.122051239013672,2.9744324684143066
2026-04-02 13:03:45.948,1964.954433502,610017510,left_foot,左脚,D4:22:CD:00:84:61,0.2413567304611206,0.3644568622112274,-0.11642135679721832,0.8918319940567017,-2.5687122985948094,-44.931966328051985,150.77590122522994,7.630197048187256,0.053961992263793945,5.958271026611328,-8.530945777893066,-24.01908302307129,8.605598449707031
2026-04-02 13:03:45.978,1964.984369131,610050844,left_foot,左脚,D4:22:CD:00:84:61,0.23830008506774902,0.3734588027000427,-0.12264391779899597,0.8880879878997803,-3.300440496345103,-46.20167912248832,151.3674905239683,7.495564937591553,-0.47905290126800537,6.1323676109313965,-9.170904159545898,-36.899105072021484,10.28416919708252
2026-04-02 13:03:46.008,1965.01454529,610084178,left_foot,左脚,D4:22:CD:00:84:61,0.2337682843208313,0.3873920738697052,-0.13040825724601746,0.8821981549263,-4.206460820764051,-48.1147700684554,152.19583565161233,7.782257556915283,-0.24803049862384796,6.442159175872803,-8.853915214538574,-56.673954010009766,12.933863639831543
2026-04-02 13:03:46.038,1965.044310144,610117512,left_foot,左脚,D4:22:CD:00:84:61,0.227298766374588,0.40680238604545593,-0.13792051374912262,0.8739709258079529,-5.0848869182553385,-50.69320777688464,153.2533260351891,8.220040321350098,-1.397596001625061,7.363443851470947,-2.1604838371276855,-77.1357421875,14.142224311828613
2026-04-02 13:03:46.069,1965.075284681,610150846,left_foot,左脚,D4:22:CD:00:84:61,0.22159430384635925,0.4319828450679779,-0.1431649625301361,0.8624330759048462,-5.41135330481787,-53.95562142813334,153.93626622242726,8.654951095581055,-1.8993360996246338,7.635105609893799,6.537391185760498,-97.03678894042969,3.328639030456543
2026-04-02 13:03:46.098,1965.104525338,610184180,left_foot,左脚,D4:22:CD:00:84:61,0.21624307334423065,0.4675443768501282,-0.14785601198673248,0.8442630171775818,-5.223218255408352,-58.584114578675134,154.19866623907345,8.466689109802246,-0.49288082122802734,7.523993968963623,12.303621292114258,-137.15802001953125,-8.722929000854492
2026-04-02 13:03:46.128,1965.134509549,610217514,left_foot,左脚,D4:22:CD:00:84:61,0.20634344220161438,0.5123046040534973,-0.1597747951745987,0.8181922435760498,-6.729223465446419,-64.72435512760049,155.9581768944519,8.93465805053711,1.5472608804702759,8.205828666687012,1.4336637258529663,-184.3644256591797,5.575085163116455
2026-04-02 13:03:46.188,1965.194354751,610250848,left_foot,左脚,D4:22:CD:00:84:61,0.18606635928153992,0.5695008635520935,-0.17952294647693634,0.7802689075469971,-13.376913721026064,-72.84960404625551,163.0666689931876,10.159287452697754,2.8631491661071777,10.0697021484375,-0.030699118971824646,-251.72430419921875,33.39729690551758
2026-04-02 13:03:46.218,1965.224502779,610284182,left_foot,左脚,D4:22:CD:00:84:61,0.1516069918870926,0.6348673701286316,-0.21094360947608948,0.7276411652565002,-47.50291661353412,-81.06758862373147,-162.29827027349992,12.561026573181152,3.5906476974487305,11.46207046508789,-7.4770660400390625,-319.0799255371094,80.03521728515625
2026-04-02 13:03:46.248,1965.254497774,610317516,left_foot,左脚,D4:22:CD:00:84:61,0.10382997244596481,0.7029013633728027,-0.23893426358699799,0.6618607044219971,-120.9956273534241,-78.53966756940562,-87.20118959298888,11.95346450805664,3.481555938720703,8.690096855163574,22.054420471191406,-362.7944641113281,97.25904846191406
2026-04-02 13:03:46.278,1965.284492819,610350850,left_foot,左脚,D4:22:CD:00:84:61,0.07854374498128891,0.7295288443565369,-0.25031140446662903,0.6316350698471069,-133.2619684321366,-73.92761167421124,-73.90263274045154,16.9454402923584,1.2950152158737183,5.53200626373291,19.882490158081055,-157.7425079345703,52.57230758666992
2026-04-02 13:03:46.308,1965.314353475,610384184,left_foot,左脚,D4:22:CD:00:84:61,0.09392496198415756,0.7148836851119995,-0.25061899423599243,0.6459951996803284,-127.93952925735815,-76.09639493551113,-80.47540015553218,4.188111782073975,4.866672515869141,9.646340370178223,-30.87723731994629,81.55431365966797,-15.827800750732422
2026-04-02 13:03:46.338,1965.344530692,610417518,left_foot,左脚,D4:22:CD:00:84:61,0.100287064909935,0.69403076171875,-0.23137211799621582,0.6743373274803162,-112.16824667102313,-79.24339194519975,-95.08048994673496,2.232604503631592,-0.949120044708252,6.379095554351807,44.724178314208984,128.10972595214844,-34.017967224121094
2026-04-02 13:03:46.368,1965.374572786,610450852,left_foot,左脚,D4:22:CD:00:84:61,0.10233684629201889,0.6605990529060364,-0.20985962450504303,0.7135090827941895,-76.59929692275088,-80.27823167173655,-129.00123929802936,4.1446213722229,0.9637751579284668,5.154322624206543,64.5261459350586,180.47299194335938,-15.712838172912598
2026-04-02 13:03:46.398,1965.404541802,610484186,left_foot,左脚,D4:22:CD:00:84:61,0.11792226135730743,0.6132171154022217,-0.18229855597019196,0.7594908475875854,-36.09143169346663,-77.02284706159338,-168.5820385589892,6.503680229187012,-1.6320700645446777,4.6927618980407715,48.61006164550781,242.1629638671875,-50.25855255126953
2026-04-02 13:03:46.428,1965.434392983,610517520,left_foot,左脚,D4:22:CD:00:84:61,0.14353574812412262,0.5555394291877747,-0.15091706812381744,0.8049830794334412,-13.906918466903363,-69.6726797744606,169.48298628199498,7.5400238037109375,-1.391182780265808,5.303149223327637,32.96468734741211,275.9631652832031,-78.36605834960938
2026-04-02 13:03:46.488,1965.494539577,610550854,left_foot,左脚,D4:22:CD:00:84:61,0.1687639057636261,0.48987293243408203,-0.11953537166118622,0.8469088673591614,-4.319874943783224,-60.470483450689045,159.97910533513465,10.542301177978516,-1.4511061906814575,5.531723499298096,27.9318904876709,291.15057373046875,-74.9957504272461
2026-04-02 13:03:46.518,1965.524538514,610584188,left_foot,左脚,D4:22:CD:00:84:61,0.19119906425476074,0.41927871108055115,-0.0874820351600647,0.8831734657287598,0.5255866455363261,-50.71848188310835,155.31987771407634,12.91089916229248,-1.293901801109314,6.700000762939453,29.440629959106445,295.3323669433594,-69.30744171142578
2026-04-02 13:03:46.548,1965.554502098,610617522,left_foot,左脚,D4:22:CD:00:84:61,0.222938671708107,0.3407701551914215,-0.049554839730262756,0.9119859933853149,4.613312408829809,-40.064573066709045,150.84358313345297,17.190410614013672,0.1447160542011261,8.654029846191406,26.480810165405273,315.59967041015625,-108.67720031738281
2026-04-02 13:03:46.578,1965.584510257,610650856,left_foot,左脚,D4:22:CD:00:84:61,0.24589695036411285,0.25806137919425964,-0.0075600529089570045,0.9342814087867737,7.414474484089336,-29.072892999357432,148.58398809265742,20.3147029876709,-3.904020071029663,7.0885233879089355,45.26677703857422,323.13763427734375,-90.23768615722656
2026-04-02 13:03:46.608,1965.614517382,610684190,left_foot,左脚,D4:22:CD:00:84:61,0.2383800745010376,0.19737669825553894,0.0453120619058609,0.9498233199119568,11.104687765331828,-20.69192148322258,149.78916710730462,23.308012008666992,-2.804922580718994,-2.875678062438965,125.88553619384766,255.20480346679688,-8.301655769348145
2026-04-02 13:03:46.638,1965.64429107,610717524,left_foot,左脚,D4:22:CD:00:84:61,0.2272174060344696,0.17770496010780334,0.08137449622154236,0.9540290236473083,14.334964581773255,-17.5832956212949,150.97892938596618,21.0314998626709,-6.260082244873047,-17.02613639831543,108.84918212890625,100.8900375366211,11.903992652893066
2026-04-02 13:03:46.668,1965.674595872,610750858,left_foot,左脚,D4:22:CD:00:84:61,0.2186899185180664,0.19677028059959412,0.04283636808395386,0.9547886848449707,10.352595387977978,-20.91682016952661,152.28238424528533,13.747733116149902,-1.7379150390625,-6.238024711608887,-106.26618194580078,-86.62142181396484,56.8536262512207
2026-04-02 13:03:46.698,1965.70455218,610784192,left_foot,左脚,D4:22:CD:00:84:61,0.2089313566684723,0.22880414128303528,-0.014255831018090248,0.9506804347038269,4.377412183061697,-26.167456624702567,154.19245325748918,1.868515968322754,-0.29736316204071045,11.62240219116211,-155.93186950683594,-146.42254638671875,71.87428283691406
2026-04-02 13:03:46.728,1965.734528746,610817526,left_foot,左脚,D4:22:CD:00:84:61,0.2171645611524582,0.2775362730026245,-0.04606418311595917,0.9347147345542908,2.34227273678211,-32.60479607335051,153.15562848260655,11.492964744567871,-7.591090202331543,7.308913230895996,-75.87596130371094,-191.64100646972656,-16.152061462402344
2026-04-02 13:03:46.788,1965.79454951,610850860,left_foot,左脚,D4:22:CD:00:84:61,0.21643143892288208,0.32053250074386597,-0.06171860545873642,0.920112669467926,1.8320896658362849,-38.065915063058696,152.89464310072168,18.60262107849121,2.210341215133667,5.351695537567139,-19.381961822509766,-161.19248962402344,-0.8791112303733826
2026-04-02 13:03:46.818,1965.824515319,610884194,left_foot,左脚,D4:22:CD:00:84:61,0.21095234155654907,0.3424335718154907,-0.07357168197631836,0.9125929474830627,0.7737885973514411,-40.998931268136275,153.6792672239046,9.891629219055176,-0.959775984287262,5.320035934448242,-16.43334197998047,-84.66826629638672,19.760543823242188
2026-04-02 13:03:46.848,1965.854528539,610917528,left_foot,左脚,D4:22:CD:00:84:61,0.2050451934337616,0.3553391098976135,-0.08418717980384827,0.9080767631530762,-0.5606535609962645,-42.833838711010976,154.771726946201,8.974300384521484,-1.6880842447280884,5.56011962890625,-17.827260971069336,-52.2501220703125,24.126537322998047
2026-04-02 13:03:46.878,1965.88438204,610950862,left_foot,左脚,D4:22:CD:00:84:61,0.20229527354240417,0.363031268119812,-0.0882585197687149,0.9052598476409912,-1.026420785043292,-43.866768908438786,155.2198663064343,8.33273696899414,-2.0164358615875244,5.6589274406433105,-4.424810409545898,-28.504762649536133,8.977401733398438
2026-04-02 13:03:46.908,1965.914561801,610984196,left_foot,左脚,D4:22:CD:00:84:61,0.20134098827838898,0.3676549792289734,-0.08789373934268951,0.9036407470703125,-0.8663945737759282,-44.414895668395786,155.231818043791,7.749153137207031,-0.23415768146514893,5.809515953063965,5.366444110870361,-13.953810691833496,-0.38561320304870605
2026-04-02 13:03:46.938,1965.944455937,611017530,left_foot,左脚,D4:22:CD:00:84:61,0.19987501204013824,0.36931750178337097,-0.08891340345144272,0.9031882286071777,-1.0449993374654065,-44.64157835793556,155.4722140185531,7.600708961486816,0.49588000774383545,5.614339351654053,-0.026573192328214645,-4.505123138427734,4.691407680511475
2026-04-02 13:03:46.968,1965.974571878,611050864,left_foot,左脚,D4:22:CD:00:84:61,0.1986917406320572,0.3674176335334778,-0.09056879580020905,0.9040594696998596,-1.4251448378696023,-44.45309066616717,155.79189277493677,7.535051345825195,-0.5318124294281006,5.882817268371582,-4.4407758712768555,7.794210910797119,6.655231475830078
2026-04-02 13:03:46.998,1966.004403828,611084198,left_foot,左脚,D4:22:CD:00:84:61,0.19894851744174957,0.36446675658226013,-0.09023582935333252,0.9052298069000244,-1.4637549665779983,-44.0875619858782,155.80228309823534,7.562506198883057,-0.3454308807849884,5.820126056671143,-0.7124125361442566,13.172645568847656,0.20926587283611298
2026-04-02 13:03:47.028,1966.034444064,611117532,left_foot,左脚,D4:22:CD:00:84:61,0.19886831939220428,0.36271774768829346,-0.0909629836678505,0.9058769941329956,-1.6330597630499044,-43.89464830422619,155.8944922061895,7.532158374786377,0.001331668347120285,5.798684597015381,-2.94838285446167,7.895029544830322,1.874585509300232
2026-04-02 13:03:47.088,1966.094534009,611150866,left_foot,左脚,D4:22:CD:00:84:61,0.19815176725387573,0.36387720704078674,-0.09254007041454315,0.9054091572761536,-1.863888313128907,-44.07420040199375,156.06505040143253,7.368528366088867,-0.5767572522163391,6.086424827575684,-3.180842638015747,-3.3833494186401367,3.261711359024048
2026-04-02 13:03:47.118,1966.124386828,611184200,left_foot,左脚,D4:22:CD:00:84:61,0.1982351392507553,0.36789530515670776,-0.09321630746126175,0.9036961197853088,-1.8197501446343083,-44.5787202364782,156.00107320620495,7.496251106262207,-0.6248599290847778,6.060965061187744,0.16822782158851624,-13.03244400024414,-2.1105170249938965
2026-04-02 13:03:47.148,1966.154541802,611217534,left_foot,左脚,D4:22:CD:00:84:61,0.19833959639072418,0.3727380335330963,-0.09347611665725708,0.9016597270965576,-1.6834379999322566,-45.1735663903431,155.88859311324558,7.526859283447266,-0.19525498151779175,5.79250431060791,1.8826074600219727,-15.766318321228027,-3.179398775100708
2026-04-02 13:03:47.178,1966.184571966,611250868,left_foot,左脚,D4:22:CD:00:84:61,0.19763948023319244,0.3787630796432495,-0.09535102546215057,0.8991026878356934,-1.7922352675316735,-45.95416369677294,155.9649563026099,7.310184478759766,0.3812018930912018,6.008810043334961,-1.4742892980575562,-21.50234031677246,0.6641063690185547
2026-04-02 13:03:47.208,1966.214512414,611284202,left_foot,左脚,D4:22:CD:00:84:61,0.19608581066131592,0.3886725902557373,-0.0999356210231781,0.8947049379348755,-2.230162692493971,-47.28072613885356,156.2530193633175,7.4289631843566895,-0.25425735116004944,6.3836669921875,-6.72744083404541,-38.08348083496094,4.330287456512451
2026-04-02 13:03:47.238,1966.244420306,611317536,left_foot,左脚,D4:22:CD:00:84:61,0.19376550614833832,0.4036802053451538,-0.10562112927436829,0.8878858685493469,-2.7336447058568103,-49.26847478914992,156.63215489740384,7.587751865386963,-0.2029612809419632,6.413732528686523,-6.490488529205322,-58.055023193359375,4.779058456420898
2026-04-02 13:03:47.298,1966.304458045,611350870,left_foot,左脚,D4:22:CD:00:84:61,0.18738913536071777,0.42403215169906616,-0.11350569128990173,0.8787482976913452,-3.7762755106049566,-51.97801663782831,157.76589892300018,7.969768047332764,-0.14112482964992523,7.84788179397583,-4.865758895874023,-80.58795166015625,16.73696517944336
2026-04-02 13:03:47.299,1966.305689304,611384204,left_foot,左脚,D4:22:CD:00:84:61,0.17738980054855347,0.45095354318618774,-0.12320763617753983,0.8660218119621277,-5.420187217556714,-55.56646154251157,159.7053717115516,8.547428131103516,-0.45338717103004456,8.886313438415527,-2.2550160884857178,-108.363037109375,25.46603775024414
2026-04-02 13:03:47.328,1966.334291078,611417538,left_foot,左脚,D4:22:CD:00:84:61,0.16654518246650696,0.4935598373413086,-0.1358768343925476,0.8427330851554871,-7.732548017603228,-61.29896840623946,162.22848560577592,8.28359603881836,-0.757239818572998,8.75985336303711,-4.696578025817871,-173.7848663330078,19.504138946533203
2026-04-02 13:03:47.388,1966.394526153,611450872,left_foot,左脚,D4:22:CD:00:84:61,0.1526700258255005,0.5489611029624939,-0.15083223581314087,0.8078262805938721,-12.202263519162653,-68.90507985169502,166.98421769627407,9.517345428466797,-0.07405684888362885,9.247655868530273,-4.295259952545166,-233.53231811523438,19.55191993713379
2026-04-02 13:03:47.418,1966.424511286,611484206,left_foot,左脚,D4:22:CD:00:84:61,0.12712867558002472,0.6188287138938904,-0.17177487909793854,0.7558987140655518,-30.30813031423591,-78.29879194550169,-174.2253782007368,10.875149726867676,3.841521739959717,13.181035995483398,-0.17820622026920319,-315.5121765136719,46.91276168823242
2026-04-02 13:03:47.448,1966.454390955,611517540,left_foot,左脚,D4:22:CD:00:84:61,0.08790935575962067,0.6939912438392639,-0.20307452976703644,0.6851341724395752,-106.31200431907777,-80.63034888017923,-97.51636237808474,14.373008728027344,2.3050081729888916,11.191604614257812,-6.88706636428833,-382.7249450683594,93.47420501708984
2026-04-02 13:03:47.478,1966.484491029,611550874,left_foot,左脚,D4:22:CD:00:84:61,0.055042825639247894,0.7435414791107178,-0.22538520395755768,0.62715083360672,-135.90631297628286,-73.22324999920696,-67.21869479485702,9.045188903808594,1.911231279373169,6.689524173736572,0.30343833565711975,-284.54296875,78.85750579833984
2026-04-02 13:03:47.508,1966.514593564,611584208,left_foot,左脚,D4:22:CD:00:84:61,0.07160085439682007,0.7491415739059448,-0.21843457221984863,0.6212461590766907,-143.0065934952338,-74.1715407146622,-60.89342330878363,15.40841293334961,5.520807266235352,9.114575386047363,-30.908306121826172,-12.75599193572998,-58.569332122802734
2026-04-02 13:03:47.538,1966.544548407,611617542,left_foot,左脚,D4:22:CD:00:84:61,0.09349378198385239,0.7338287234306335,-0.21504798531532288,0.6375805139541626,-141.05201925367535,-77.41158857450401,-64.30673469751368,0.6200146675109863,-1.121429443359375,8.308594703674316,-40.71059799194336,91.96282958984375,-39.458770751953125
2026-04-02 13:03:47.568,1966.574355607,611650876,left_foot,左脚,D4:22:CD:00:84:61,0.09640184044837952,0.7082617282867432,-0.19237901270389557,0.6723557710647583,-122.32540188373021,-81.68943118529049,-81.30281606700389,4.126380920410156,0.7304240465164185,5.399218559265137,59.76839065551758,153.0294952392578,-33.12519836425781
2026-04-02 13:03:47.628,1966.634542721,611684210,left_foot,左脚,D4:22:CD:00:84:61,0.11207039654254913,0.6607699990272522,-0.18196234107017517,0.7195228934288025,-61.97427391080205,-82.59646564752092,-142.07674983505095,5.301143646240234,0.3614945113658905,4.729164123535156,1.2414239645004272,238.337158203125,-14.13987922668457
2026-04-02 13:03:47.629,1966.635660829,611717544,left_foot,左脚,D4:22:CD:00:84:61,0.1377222239971161,0.6038647294044495,-0.16195929050445557,0.7682117223739624,-20.709968938304314,-76.50803113988655,176.06847700292153,6.082592487335205,-1.4603122472763062,5.028687953948975,-0.439193993806839,275.1087951660156,-54.281124114990234
2026-04-02 13:03:47.719,1966.725374913,611750878,left_foot,左脚,D4:22:CD:00:84:61,0.16052187979221344,0.5382680296897888,-0.1374429613351822,0.815849244594574,-7.656993275468349,-67.28188846434853,162.83739062177986,10.021657943725586,-0.4770505726337433,5.080924987792969,12.71977710723877,296.5167236328125,-51.8798942565918
2026-04-02 13:03:47.720,1966.726525845,611784212,left_foot,左脚,D4:22:CD:00:84:61,0.17255327105522156,0.46535664796829224,-0.106602743268013,0.8615709543228149,-2.4301700722842,-56.9993897177056,158.6691587494528,12.143035888671875,0.08845318853855133,5.917173862457275,45.48619842529297,312.06597900390625,-31.001466751098633
2026-04-02 13:03:47.748,1966.754440929,611817546,left_foot,左脚,D4:22:CD:00:84:61,0.18650467693805695,0.38851895928382874,-0.06939365714788437,0.8996962904930115,1.6685125417780673,-46.46740949687747,155.86089110600625,15.581000328063965,1.1903254985809326,7.54774284362793,56.16322708129883,316.2778015136719,-49.982486724853516
2026-04-02 13:03:47.778,1966.784550351,611850880,left_foot,左脚,D4:22:CD:00:84:61,0.2010636180639267,0.30930793285369873,-0.023481758311390877,0.9291667342185974,5.709802571291312,-35.74930547840301,153.73710027287595,19.549407958984375,-0.5692155361175537,7.403607368469238,78.7164306640625,318.1906433105469,-68.51974487304688
2026-04-02 13:03:47.808,1966.814400702,611884214,left_foot,左脚,D4:22:CD:00:84:61,0.192794069647789,0.2411627173423767,0.03860586881637573,0.9503582715988159,10.6973746225634,-26.327145881039154,154.55590924013308,24.012096405029297,-0.8676794767379761,0.1218411922454834,161.8232879638672,284.04071044921875,-19.492008209228516
2026-04-02 13:03:47.838,1966.844556922,611917548,left_foot,左脚,D4:22:CD:00:84:61,0.18504688143730164,0.20603661239147186,0.08916061371564865,0.9567428827285767,15.351416444014884,-21.17700358831127,155.2203540659206,20.488117218017578,-7.06648063659668,-11.919682502746582,147.47991943359375,156.9984130859375,-17.34456443786621
2026-04-02 13:03:47.868,1966.874540601,611950882,left_foot,左脚,D4:22:CD:00:84:61,0.19381287693977356,0.2130456566810608,0.06607826799154282,0.9553438425064087,13.056909190806635,-22.423530701353208,154.46488261170663,22.69965934753418,0.3794132173061371,-17.222332000732422,-77.13592529296875,-38.00479507446289,-11.87377643585205
2026-04-02 13:03:47.898,1966.904381942,611984216,left_foot,左脚,D4:22:CD:00:84:61,0.19644050300121307,0.23394758999347687,-0.0066669778898358345,0.9521740078926086,5.083844243967249,-26.624211877267303,155.48236480364147,3.1036722660064697,-3.3542442321777344,12.752732276916504,-226.35752868652344,-116.0157241821289,46.75516891479492
2026-04-02 13:03:47.928,1966.934546277,612017550,left_foot,左脚,D4:22:CD:00:84:61,0.21109920740127563,0.2835788428783417,-0.04792650789022446,0.9341967105865479,2.071106841080314,-33.371896777197264,153.9127302318489,5.850785732269287,-12.233344078063965,6.758385181427002,-113.51600646972656,-201.03028869628906,-28.5266170501709
2026-04-02 13:03:48.021,1967.027187293,612050884,left_foot,左脚,D4:22:CD:00:84:61,0.20811955630779266,0.33469462394714355,-0.06348301470279694,0.9168620109558105,1.7083456604741587,-39.80386361649782,153.8036345684857,20.13909912109375,0.07839514315128326,6.1341047286987305,-12.201366424560547,-189.40081787109375,3.1202099323272705
2026-04-02 13:03:48.022,1967.028266705,612084218,left_foot,左脚,D4:22:CD:00:84:61,0.2020653784275055,0.36105090379714966,-0.07962943613529205,0.9069019556045532,0.11667207619221084,-43.39752500870325,154.8319553734938,11.188876152038574,0.09871362149715424,4.4308061599731445,-26.8067684173584,-103.63548278808594,24.27227783203125
2026-04-02 13:03:48.051,1967.057429111,612117552,left_foot,左脚,D4:22:CD:00:84:61,0.19706638157367706,0.3757205009460449,-0.09106697142124176,0.9009472131729126,-1.3081301741076279,-45.47144665071917,155.87192677766402,9.379672050476074,-2.5920603275299072,5.373105049133301,-20.470203399658203,-58.76464080810547,21.157855987548828
2026-04-02 13:03:48.078,1967.08450434,612150886,left_foot,左脚,D4:22:CD:00:84:61,0.19448432326316833,0.3840470016002655,-0.09451685845851898,0.8976360559463501,-1.6922629719448692,-46.57150223682925,156.27852792856234,8.398914337158203,-2.1823654174804688,5.635270118713379,-2.285252809524536,-29.71779441833496,7.100309371948242
2026-04-02 13:03:48.108,1967.114455525,612184220,left_foot,左脚,D4:22:CD:00:84:61,0.19405797123908997,0.3891701102256775,-0.09278364479541779,0.8957005143165588,-1.2781886570456273,-47.152849605821544,156.1088539215428,7.721760272979736,-0.08159807324409485,5.917789936065674,9.166364669799805,-14.03950023651123,-4.4472222328186035
2026-04-02 13:03:48.138,1967.145011991,612217554,left_foot,左脚,D4:22:CD:00:84:61,0.19310887157917023,0.39208710193634033,-0.09350626170635223,0.8945577144622803,-1.3461057009485404,-47.52759836704396,156.2295910987292,7.82874059677124,0.7057225108146667,5.564685821533203,1.017474889755249,-8.179813385009766,1.734586477279663
2026-04-02 13:03:48.168,1967.174609567,612250888,left_foot,左脚,D4:22:CD:00:84:61,0.19176314771175385,0.39171597361564636,-0.09516648203134537,0.8948345184326172,-1.7041965377730701,-47.52234949376043,156.55921296344397,7.582790851593018,-0.2894493341445923,5.636383056640625,-3.1122846603393555,2.9490320682525635,6.273390293121338
2026-04-02 13:03:48.198,1967.204601489,612284222,left_foot,左脚,D4:22:CD:00:84:61,0.1910250037908554,0.38978344202041626,-0.09570537507534027,0.8957783579826355,-1.9050050661118592,-47.29735871004952,156.7582171106037,7.608405590057373,-0.05751469358801842,5.6541056632995605,-1.3118971586227417,9.462674140930176,3.869825601577759
2026-04-02 13:03:48.228,1967.234605194,612317556,left_foot,左脚,D4:22:CD:00:84:61,0.19043932855129242,0.38868841528892517,-0.09766332805156708,0.8961674571037292,-2.2781043957558356,-47.210777090100386,157.00138395154,7.512369155883789,-0.2470729649066925,5.81633996963501,-5.548798561096191,5.153367519378662,4.69748592376709
2026-04-02 13:03:48.288,1967.294625279,612350890,left_foot,左脚,D4:22:CD:00:84:61,0.19010892510414124,0.3913874924182892,-0.09973777830600739,0.894833505153656,-2.522825940507256,-47.593192569597,157.12415853506923,7.5094990730285645,-0.6386234164237976,5.995081901550293,-4.358819961547852,-8.923458099365234,1.6808514595031738
2026-04-02 13:03:48.348,1967.354539805,612384224,left_foot,左脚,D4:22:CD:00:84:61,0.18967244029045105,0.3968096971511841,-0.10142998397350311,0.8923443555831909,-2.627369045341685,-48.301766054580895,157.17839362388884,7.584689617156982,-0.38642793893814087,5.9255523681640625,-1.670077919960022,-18.731416702270508,-0.18580184876918793
2026-04-02 13:03:48.349,1967.355138685,612417558,left_foot,左脚,D4:22:CD:00:84:61,0.18920549750328064,0.4038858413696289,-0.10364913940429688,0.8890076279640198,-2.760894091403143,-49.229993696168975,157.23537218877564,7.620701313018799,-0.18355754017829895,5.857471942901611,-2.4832186698913574,-25.405166625976562,-0.48729243874549866
2026-04-02 13:03:48.378,1967.384566384,612450892,left_foot,左脚,D4:22:CD:00:84:61,0.18773698806762695,0.4142382740974426,-0.10794007033109665,0.8840309381484985,-3.190104105612516,-50.61749675697819,157.5298872005019,7.411696434020996,0.2484942376613617,6.148100852966309,-5.907951831817627,-39.497013092041016,3.2433035373687744
2026-04-02 13:03:48.408,1967.414618439,612484226,left_foot,左脚,D4:22:CD:00:84:61,0.18448032438755035,0.42945611476898193,-0.11398569494485855,0.8766651749610901,-3.9138737366654612,-52.658522569146065,158.17020658270528,7.757882118225098,-0.32784196734428406,6.609996795654297,-6.46915340423584,-59.59138107299805,7.8565216064453125
2026-04-02 13:03:48.438,1967.444580308,612517560,left_foot,左脚,D4:22:CD:00:84:61,0.17950424551963806,0.45017340779304504,-0.11840591579675674,0.8666616082191467,-4.401855067993088,-55.36653892551199,158.90675428247422,8.20728874206543,-2.0027129650115967,7.498722076416016,3.409810781478882,-79.83143615722656,6.812817573547363
2026-04-02 13:03:48.468,1967.474697944,612550894,left_foot,左脚,D4:22:CD:00:84:61,0.17594601213932037,0.4782083332538605,-0.11853843182325363,0.8522374629974365,-3.754871428672043,-58.95989887875576,158.79331854623993,8.531332969665527,-1.6673412322998047,8.05793571472168,16.736778259277344,-105.39997863769531,-9.822595596313477
2026-04-02 13:03:48.498,1967.504527202,612584228,left_foot,左脚,D4:22:CD:00:84:61,0.16928426921367645,0.5182704925537109,-0.12311252951622009,0.8292056322097778,-3.796828545381551,-64.31460360089652,159.31054961461757,8.426653861999512,1.4797223806381226,9.078913688659668,12.56773853302002,-158.97207641601562,-3.5272631645202637
2026-04-02 13:03:48.528,1967.534609462,612617562,left_foot,左脚,D4:22:CD:00:84:61,0.1567736119031906,0.5743016004562378,-0.133135586977005,0.7923853993415833,-5.790249993977846,-72.15344705759007,161.83751204322743,9.300887107849121,0.41959908604621887,11.114763259887695,10.853364944458008,-235.08505249023438,8.15063762664795
2026-04-02 13:03:48.591,1967.597366456,612650896,left_foot,左脚,D4:22:CD:00:84:61,0.131431445479393,0.65191251039505,-0.14700362086296082,0.7322062849998474,-22.349742118613083,-83.3689928519028,179.6016361722475,12.096881866455078,4.473447799682617,15.367709159851074,26.655202865600586,-348.7789306640625,28.34803009033203
2026-04-02 13:03:48.618,1967.624543294,612684230,left_foot,左脚,D4:22:CD:00:84:61,0.08918024599552155,0.7338085770606995,-0.17779889702796936,0.6495840549468994,-144.46685350779666,-80.0812351532701,-57.37944552591131,13.41818618774414,4.25979471206665,12.27476978302002,12.462850570678711,-427.2244567871094,97.0644302368164
2026-04-02 13:03:48.648,1967.654657912,612717564,left_foot,左脚,D4:22:CD:00:84:61,0.052511829882860184,0.7826774716377258,-0.19432184100151062,0.5889801979064941,-153.9926813993472,-70.45367574713964,-46.410029661063696,9.543054580688477,1.5537852048873901,7.140527725219727,33.584861755371094,-289.7586364746094,75.56430053710938
2026-04-02 13:03:48.678,1967.684679731,612750898,left_foot,左脚,D4:22:CD:00:84:61,0.06405768543481827,0.7778446674346924,-0.1834670752286911,0.5976574420928955,-156.6690410681491,-72.41579274867058,-43.73361124159881,12.156631469726562,7.0239577293396,10.84731674194336,-4.149122714996338,42.508426666259766,-47.27193832397461
2026-04-02 13:03:48.709,1967.715173963,612784232,left_foot,左脚,D4:22:CD:00:84:61,0.08052612096071243,0.7533575892448425,-0.17746372520923615,0.6280722618103027,-152.84808695693303,-77.13739491377709,-48.308814439661816,-0.25322607159614563,-2.8662424087524414,8.140620231628418,-17.90215301513672,142.63401794433594,-27.04447364807129
2026-04-02 13:03:48.739,1967.745512747,612817566,left_foot,左脚,D4:22:CD:00:84:61,0.07406347244977951,0.7164504528045654,-0.14767639338970184,0.6777942776679993,-126.74180813488185,-83.25896627153982,-71.33140226245355,5.166752815246582,0.555161714553833,5.240743160247803,101.1727066040039,212.06320190429688,-26.394229888916016
2026-04-02 13:03:48.768,1967.774608356,612850900,left_foot,左脚,D4:22:CD:00:84:61,0.07966119050979614,0.6561830043792725,-0.1318557858467102,0.7387098073959351,-40.93402143102858,-82.08150827956833,-156.310893237722,6.010970115661621,-0.28494489192962646,5.226592540740967,38.52912139892578,296.80487060546875,-5.28206205368042
2026-04-02 13:03:48.798,1967.804670004,612884234,left_foot,左脚,D4:22:CD:00:84:61,0.09267552196979523,0.5899865031242371,-0.10791987925767899,0.794783353805542,-12.499480625766376,-73.30067177578535,176.0146102433422,6.711688041687012,-1.9452661275863647,5.851984977722168,38.52064895629883,306.5506286621094,-41.217247009277344
2026-04-02 13:03:48.828,1967.834375209,612917568,left_foot,左脚,D4:22:CD:00:84:61,0.1053301990032196,0.518848717212677,-0.07901681214570999,0.8446643352508545,-3.0824265011148007,-63.27201007920066,167.68301962263968,11.461782455444336,-0.5875106453895569,6.436405658721924,48.9476432800293,308.9850769042969,-50.57474899291992
2026-04-02 13:03:48.888,1967.894605887,612950902,left_foot,左脚,D4:22:CD:00:84:61,0.12056398391723633,0.43803948163986206,-0.04899298772215843,0.8894861340522766,1.729885836260088,-52.285949447122476,163.71283243400936,16.129741668701172,1.5446423292160034,7.607841968536377,42.711341857910156,329.4171447753906,-59.32247543334961
2026-04-02 13:03:48.918,1967.924687584,612984236,left_foot,左脚,D4:22:CD:00:84:61,0.14540037512779236,0.3491845428943634,-0.01440267264842987,0.9255926012992859,5.658684614277334,-40.586358691687145,160.0509330202209,18.94523048400879,-0.479092538356781,8.857919692993164,37.4079704284668,344.8680725097656,-97.93423461914062
2026-04-02 13:03:48.948,1967.954476565,613017570,left_foot,左脚,D4:22:CD:00:84:61,0.15028274059295654,0.26887762546539307,0.036719515919685364,0.9506690502166748,10.01793477277874,-30.012612908513734,159.34207261967444,24.17359733581543,0.08277743309736252,1.871607780456543,117.90648651123047,312.269775390625,-60.30851364135742
2026-04-02 13:03:48.978,1967.984656816,613050904,left_foot,左脚,D4:22:CD:00:84:61,0.13880202174186707,0.21776756644248962,0.09145470708608627,0.9617418646812439,14.898357025785238,-23.1714671259179,160.5042306050193,23.11336898803711,-6.48418664932251,-9.753989219665527,161.6796875,208.88250732421875,-13.911811828613281
2026-04-02 13:03:49.008,1968.014668816,613084238,left_foot,左脚,D4:22:CD:00:84:61,0.14069630205631256,0.2120647430419922,0.1123877614736557,0.9605218768119812,17.29954086172287,-22.071323801217254,159.934531451619,24.026432037353516,-1.1062817573547363,-19.198949813842773,65.53321838378906,30.404560089111328,-24.911739349365234
2026-04-02 13:03:49.038,1968.044284449,613117572,left_foot,左脚,D4:22:CD:00:84:61,0.1500115543603897,0.23828282952308655,0.03409114107489586,0.9589346051216125,8.800252342184478,-26.53645871907592,160.13891504015803,8.486809730529785,0.10155835747718811,5.649750232696533,-252.4481964111328,-124.99398040771484,34.987857818603516
2026-04-02 13:03:49.068,1968.074415849,613150906,left_foot,左脚,D4:22:CD:00:84:61,0.16819745302200317,0.278576523065567,-0.026946188881993294,0.9451871514320374,2.9035015738221848,-32.38993066519858,158.97607574788924,1.7047592401504517,-11.347115516662598,7.965907096862793,-193.87490844726562,-173.7770233154297,-12.750859260559082
2026-04-02 13:03:49.098,1968.104533581,613184240,left_foot,左脚,D4:22:CD:00:84:61,0.17601795494556427,0.33391082286834717,-0.04720932990312576,0.9248203039169312,2.240724715325659,-39.36322075719607,157.64636688335884,15.233429908752441,-8.714737892150879,7.934499740600586,-42.70124435424805,-206.5575714111328,-23.515348434448242
2026-04-02 13:03:49.128,1968.134522215,613217574,left_foot,左脚,D4:22:CD:00:84:61,0.17270731925964355,0.3679344356060028,-0.060875020921230316,0.9116417765617371,1.2775277751488359,-43.778785399702016,158.03198552992131,17.722501754760742,4.522828578948975,4.038435935974121,-20.620620727539062,-127.94168090820312,12.038736343383789
2026-04-02 13:03:49.188,1968.194385051,613250908,left_foot,左脚,D4:22:CD:00:84:61,0.16826778650283813,0.38798531889915466,-0.07200322300195694,0.9033100008964539,0.040639800368381454,-46.4832934872685,158.87841787647977,8.993277549743652,-0.6835851669311523,5.313285827636719,-18.638322830200195,-76.65216064453125,18.2701416015625
2026-04-02 13:03:49.218,1968.224513391,613284242,left_foot,左脚,D4:22:CD:00:84:61,0.16555489599704742,0.3998161256313324,-0.07828173041343689,0.8981152176856995,-0.7057419039512283,-48.08026679251445,159.42596425763915,8.468502044677734,-1.8177833557128906,5.650730609893799,-9.848167419433594,-43.87372970581055,10.291149139404297
2026-04-02 13:03:49.248,1968.254527082,613317576,left_foot,左脚,D4:22:CD:00:84:61,0.16479900479316711,0.4069088101387024,-0.0787774845957756,0.8950200080871582,-0.6020991796555729,-48.968415027797995,159.40829567986515,8.390233039855957,-1.4446394443511963,5.654544353485107,3.1949422359466553,-22.745258331298828,-1.2501907348632812
2026-04-02 13:03:49.279,1968.285423656,613350910,left_foot,左脚,D4:22:CD:00:84:61,0.1642504632472992,0.41060692071914673,-0.07876027375459671,0.8934319615364075,-0.5152568947671252,-49.426430974242386,159.4030150205362,7.77368688583374,0.8530383110046387,5.762220859527588,2.9419784545898438,-10.037389755249023,-0.8173794150352478
2026-04-02 13:03:49.308,1968.314401691,613384244,left_foot,左脚,D4:22:CD:00:84:61,0.16242048144340515,0.412075400352478,-0.08141423016786575,0.8928523063659668,-1.0200988709018017,-49.66663621721799,159.8519905434657,7.57183837890625,0.15074819326400757,5.5790886878967285,-4.504754543304443,-3.810361623764038,8.138110160827637
2026-04-02 13:03:49.338,1968.344534555,613417578,left_foot,左脚,D4:22:CD:00:84:61,0.16122913360595703,0.411455363035202,-0.08309284597635269,0.8931995630264282,-1.39405739631069,-49.624670120333654,160.18027236021422,7.732008457183838,-0.4776242673397064,5.596877574920654,-3.3499650955200195,4.474142551422119,5.936705589294434
2026-04-02 13:03:49.368,1968.374515995,613450912,left_foot,左脚,D4:22:CD:00:84:61,0.16115021705627441,0.4090808928012848,-0.08379530906677246,0.8942382335662842,-1.5848426320349396,-49.34432916714053,160.29685103596853,7.7097086906433105,-0.3436910808086395,5.609020233154297,-2.7123897075653076,11.565925598144531,2.0468714237213135
2026-04-02 13:03:49.398,1968.404233255,613484246,left_foot,左脚,D4:22:CD:00:84:61,0.16073554754257202,0.40852275490760803,-0.08504113554954529,0.894450306892395,-1.8280744054741103,-49.30091898482073,160.46396419703268,7.33361291885376,-0.05528319999575615,6.019454479217529,-3.1620428562164307,4.301792621612549,2.8871960639953613
2026-04-02 13:03:49.458,1968.464592528,613517580,left_foot,左脚,D4:22:CD:00:84:61,0.15968555212020874,0.41144654154777527,-0.08713050931692123,0.8930962085723877,-2.147028212652005,-49.707185156167036,160.71987676641197,7.531689167022705,-0.3621644079685211,5.95910120010376,-3.4259090423583984,-9.384648323059082,4.1745405197143555
2026-04-02 13:03:49.488,1968.494522141,613550914,left_foot,左脚,D4:22:CD:00:84:61,0.15965785086154938,0.41606462001800537,-0.0876370444893837,0.8909094333648682,-2.0899229748465538,-50.29425194196209,160.66117697600623,7.533655643463135,-0.5668069124221802,5.7858357429504395,0.6589176058769226,-14.699172973632812,-2.161052703857422
2026-04-02 13:03:49.518,1968.52433177,613584248,left_foot,左脚,D4:22:CD:00:84:61,0.15879885852336884,0.42325642704963684,-0.08984345197677612,0.8874485492706299,-2.291985457521988,-51.23959425228649,160.809099745483,7.288214206695557,0.7059147357940674,6.205738067626953,-2.3589706420898438,-25.70383071899414,1.3677148818969727
2026-04-02 13:03:49.548,1968.55449219,613617582,left_foot,左脚,D4:22:CD:00:84:61,0.15693816542625427,0.4355831444263458,-0.095237135887146,0.881230890750885,-2.9584913476097574,-52.90068319674333,161.2762500678095,7.32969331741333,-0.1049717366695404,6.762475967407227,-8.723169326782227,-47.57512664794922,6.023337364196777
2026-04-02 13:03:49.578,1968.584526298,613650916,left_foot,左脚,D4:22:CD:00:84:61,0.1530311107635498,0.45529377460479736,-0.10081423074007034,0.8712782263755798,-3.6781535735291455,-55.510539881030425,162.0124654598456,7.667633533477783,-0.5507512092590332,7.633748531341553,-3.4703752994537354,-76.47789001464844,8.079422950744629
2026-04-02 13:03:49.608,1968.614537892,613684250,left_foot,左脚,D4:22:CD:00:84:61,0.1475389152765274,0.4811893403530121,-0.10390400886535645,0.8578421473503113,-4.02692629823946,-58.895739518427064,162.7566551606928,8.355629920959473,-2.09451961517334,8.091819763183594,8.495014190673828,-99.90699005126953,4.9418110847473145
2026-04-02 13:03:49.638,1968.644265929,613717584,left_foot,左脚,D4:22:CD:00:84:61,0.14278572797775269,0.517589807510376,-0.10497383773326874,0.8370745778083801,-3.6147724864506947,-63.70172590529889,162.88580202284058,8.428911209106445,-0.1604003608226776,8.942957878112793,15.95776081085205,-141.95962524414062,-8.109893798828125
2026-04-02 13:03:49.668,1968.674515613,613750918,left_foot,左脚,D4:22:CD:00:84:61,0.13325777649879456,0.5675784945487976,-0.1129627674818039,0.804572343826294,-5.278372125528427,-70.63442169326791,164.93244268532604,9.155698776245117,1.700760006904602,9.93048095703125,6.9171295166015625,-207.43470764160156,7.336606025695801
2026-04-02 13:03:49.698,1968.704516753,613784252,left_foot,左脚,D4:22:CD:00:84:61,0.11585214734077454,0.6328738927841187,-0.1241312175989151,0.7554076313972473,-13.672785232841598,-80.0360926977654,174.0579170295441,9.569670677185059,1.0020636320114136,12.133818626403809,13.985053062438965,-287.3905029296875,21.87502098083496
2026-04-02 13:03:49.728,1968.734510483,613817586,left_foot,左脚,D4:22:CD:00:84:61,0.08490125834941864,0.7156009078025818,-0.146671861410141,0.6776390671730042,-131.01025749711908,-84.12260377694042,-67.86368371637207,13.337845802307129,4.670574188232422,14.99747371673584,8.606493949890137,-406.4337463378906,63.245967864990234
2026-04-02 13:03:49.788,1968.794636923,613850920,left_foot,左脚,D4:22:CD:00:84:61,0.043310560286045074,0.7844065427780151,-0.15543316304683685,0.5988917350769043,-157.02776313836065,-72.36632489049829,-39.32414170238023,10.774572372436523,-0.3390811085700989,6.283433437347412,62.41207504272461,-378.264404296875,61.11387634277344
2026-04-02 13:03:49.818,1968.824568327,613884254,left_foot,左脚,D4:22:CD:00:84:61,0.0287172794342041,0.7990383505821228,-0.14926710724830627,0.581749677658081,-158.32383399480975,-69.76027512833599,-36.36608312646566,16.918115615844727,8.567935943603516,9.399476051330566,45.07835388183594,-83.51526641845703,3.466456890106201
2026-04-02 13:03:49.848,1968.854526647,613917588,left_foot,左脚,D4:22:CD:00:84:61,0.04515629634261131,0.7816140055656433,-0.16417351365089417,0.6000731587409973,-155.3663335334403,-72.34081819722427,-41.8636064476703,0.9814870953559875,-0.381439745426178,10.395126342773438,-67.24666595458984,91.24252319335938,19.667438507080078
2026-04-02 13:03:49.878,1968.884357258,613950922,left_foot,左脚,D4:22:CD:00:84:61,0.03768693655729294,0.7572770118713379,-0.14569619297981262,0.6355187296867371,-145.92516185468872,-76.78245370866371,-49.076301255189,2.688922643661499,-0.8553382158279419,6.249842643737793,74.34568786621094,142.94996643066406,-14.365641593933105
2026-04-02 13:03:49.908,1968.914530607,613984256,left_foot,左脚,D4:22:CD:00:84:61,0.036045338958501816,0.7106656432151794,-0.13631221652030945,0.6892561912536621,-109.07196025434487,-81.68508964433462,-84.96583962088742,6.306826114654541,1.8476594686508179,4.659865856170654,45.488609313964844,241.02951049804688,10.204961776733398
2026-04-02 13:03:49.938,1968.944368738,614017590,left_foot,左脚,D4:22:CD:00:84:61,0.047539424151182175,0.651904821395874,-0.12312544882297516,0.7467263340950012,-45.51674992067353,-80.16228130126814,-148.3972459096587,4.766036510467529,-1.4972553253173828,5.173347473144531,22.499889373779297,285.64813232421875,-24.081836700439453
2026-04-02 13:03:49.968,1968.974424586,614050924,left_foot,左脚,D4:22:CD:00:84:61,0.06656404584646225,0.5887352228164673,-0.10102815926074982,0.799220621585846,-16.183879135113507,-72.65138430018851,-177.58610199738678,8.338356018066406,-0.7033801078796387,5.476912498474121,25.631555557250977,290.4500427246094,-62.51952362060547
2026-04-02 13:03:49.998,1969.004579987,614084258,left_foot,左脚,D4:22:CD:00:84:61,0.08562513440847397,0.5181447267532349,-0.07501780986785889,0.8476832509040833,-4.864445916967125,-63.03603376070808,171.44830590532436,12.269319534301758,0.10892143845558167,6.335253715515137,33.22653579711914,303.68359375,-68.97180938720703
2026-04-02 13:03:50.028,1969.034724257,614117592,left_foot,左脚,D4:22:CD:00:84:61,0.11080668866634369,0.43457287549972534,-0.04776325449347496,0.8925172686576843,1.024625554449897,-51.84223022886514,165.34778865438656,16.605581283569336,1.2821778059005737,7.8144731521606445,21.19075584411621,337.35101318359375,-86.83858489990234
2026-04-02 13:03:50.088,1969.094365361,614150926,left_foot,左脚,D4:22:CD:00:84:61,0.14380007982254028,0.34263375401496887,-0.017344670370221138,0.9282364845275879,4.958913235119191,-39.87228980256525,160.58814939612756,20.45340347290039,-0.4881943166255951,8.925731658935547,14.561908721923828,352.38885498046875,-117.78308868408203
2026-04-02 13:03:50.118,1969.124645331,614184260,left_foot,左脚,D4:22:CD:00:84:61,0.1549772173166275,0.26124003529548645,0.02843313291668892,0.9523273706436157,8.91033918551198,-29.25904808885204,159.18371537023438,24.116981506347656,0.35394003987312317,1.017172932624817,94.0184097290039,311.9757385253906,-72.70075988769531
2026-04-02 13:03:50.148,1969.154630229,614217594,left_foot,左脚,D4:22:CD:00:84:61,0.15118421614170074,0.21826624870300293,0.07570256292819977,0.9611307978630066,13.321848971455047,-23.370462950719077,159.35425643785373,22.594388961791992,-7.362869739532471,-13.542326927185059,134.22567749023438,175.8636474609375,-29.586162567138672
2026-04-02 13:03:50.178,1969.184609513,614250928,left_foot,左脚,D4:22:CD:00:84:61,0.16001498699188232,0.2233765423297882,0.06310781091451645,0.9594351649284363,12.179972831984978,-24.106505485502154,158.45251985080682,25.69350814819336,1.00922691822052,-19.615419387817383,-45.21223449707031,-23.675878524780273,-19.765275955200195
2026-04-02 13:03:50.209,1969.215507911,614284262,left_foot,左脚,D4:22:CD:00:84:61,0.14490310847759247,0.2543658912181854,-0.002359767211601138,0.9561879634857178,4.544968269550258,-29.151930244450707,161.5832227655308,2.1351711750030518,0.8021496534347534,13.05584716796875,-186.86541748046875,-132.9789581298828,104.63868713378906
2026-04-02 13:03:50.238,1969.244716249,614317596,left_foot,左脚,D4:22:CD:00:84:61,0.15020151436328888,0.30795085430145264,-0.047359563410282135,0.9382766485214233,0.2585625350613525,-36.30709806791056,161.7254682276508,5.8239054679870605,-10.006428718566895,5.7711896896362305,-126.009765625,-210.345947265625,12.273697853088379
2026-04-02 13:03:50.268,1969.274635476,614350930,left_foot,左脚,D4:22:CD:00:84:61,0.15158066153526306,0.3620462417602539,-0.058686625212430954,0.9178789854049683,0.158648309470921,-43.0330959395778,161.18280797126963,17.169071197509766,-6.674025535583496,7.29926872253418,-12.821267127990723,-197.73468017578125,-12.389293670654297
2026-04-02 13:03:50.298,1969.304626394,614384264,left_foot,左脚,D4:22:CD:00:84:61,0.15150626003742218,0.3942774832248688,-0.06772689521312714,0.9038829207420349,-0.24971672079257679,-47.16236022415554,161.07840166900618,14.813222885131836,3.357966184616089,4.389162540435791,-13.929285049438477,-119.43428802490234,-2.9407005310058594
2026-04-02 13:03:50.328,1969.334263257,614417598,left_foot,左脚,D4:22:CD:00:84:61,0.14966334402561188,0.41248345375061035,-0.07539251446723938,0.8954185247421265,-1.020448801857222,-49.57518919444677,161.49345591374617,9.386704444885254,-0.5188170671463013,5.029616832733154,-13.387200355529785,-67.99695587158203,6.9385223388671875
2026-04-02 13:03:50.388,1969.394591585,614450932,left_foot,左脚,D4:22:CD:00:84:61,0.14875634014606476,0.4209975302219391,-0.07864497601985931,0.8913179636001587,-1.3520075876351394,-50.70388113468826,161.69053431206407,8.535264015197754,-1.551204800605774,5.653242111206055,-4.986023426055908,-29.602375030517578,2.549485206604004
2026-04-02 13:03:50.418,1969.424535106,614484266,left_foot,左脚,D4:22:CD:00:84:61,0.1493605375289917,0.4254743754863739,-0.07690777629613876,0.8892404437065125,-0.8858252690855027,-51.2305279093665,161.35543413050112,8.020565032958984,-0.969308078289032,5.809608459472656,6.609930992126465,-11.54824447631836,-7.2081146240234375
2026-04-02 13:03:50.448,1969.454330972,614517600,left_foot,左脚,D4:22:CD:00:84:61,0.14979682862758636,0.42671722173690796,-0.07559043914079666,0.8886841535568237,-0.5973729158722894,-51.35956500494015,161.15153443131712,7.715647220611572,0.8459069728851318,5.611212253570557,4.282052040100098,0.095615454018116,-4.424820423126221
2026-04-02 13:03:50.478,1969.484565622,614550934,left_foot,左脚,D4:22:CD:00:84:61,0.1495402753353119,0.4233766794204712,-0.07624068856239319,0.8902681469917297,-0.830033414838427,-50.95391770989763,161.32533101404854,7.667814254760742,0.10499062389135361,5.5582051277160645,-2.577434778213501,15.860809326171875,2.9427788257598877
2026-04-02 13:03:50.508,1969.514521097,614584268,left_foot,左脚,D4:22:CD:00:84:61,0.14938420057296753,0.4186464548110962,-0.07607340067625046,0.892542839050293,-0.962707306774696,-50.35818413323654,161.44962841786355,7.477687358856201,-0.3049180507659912,5.70994758605957,-0.7729771733283997,21.402935028076172,2.1985347270965576
2026-04-02 13:03:50.538,1969.544528085,614617602,left_foot,左脚,D4:22:CD:00:84:61,0.14891141653060913,0.41586199402809143,-0.07657559961080551,0.8938794732093811,-1.1633901010472085,-50.019828875823876,161.62665663356924,7.0795183181762695,0.3146896958351135,6.145971775054932,-1.6322697401046753,13.502951622009277,3.1680595874786377
2026-04-02 13:03:50.568,1969.574452188,614650936,left_foot,左脚,D4:22:CD:00:84:61,0.1483035385608673,0.4182574152946472,-0.07886866480112076,0.8926627039909363,-1.504476329009412,-50.3645276892883,161.8419268677613,7.0044708251953125,-0.3001895546913147,6.418851852416992,-4.995186805725098,-7.189078330993652,3.5171754360198975
2026-04-02 13:03:50.598,1969.60448373,614684270,left_foot,左脚,D4:22:CD:00:84:61,0.14843519032001495,0.42373529076576233,-0.07949043810367584,0.889998197555542,-1.43134422189605,-51.0637370930203,161.74627918961966,7.5458574295043945,-0.5945490002632141,6.103528022766113,0.24411256611347198,-17.83049774169922,-2.7278549671173096
2026-04-02 13:03:50.628,1969.634538048,614717604,left_foot,左脚,D4:22:CD:00:84:61,0.1484442800283432,0.4310280680656433,-0.08004258573055267,0.8864381313323975,-1.297024260090102,-51.99182857463051,161.61925195757604,6.970626354217529,0.0559612438082695,6.116015434265137,1.3039122819900513,-24.812103271484375,-3.4034128189086914
2026-04-02 13:03:50.688,1969.694419438,614750938,left_foot,左脚,D4:22:CD:00:84:61,0.14876265823841095,0.44389161467552185,-0.08274915814399719,0.8797628283500671,-1.3087791424395236,-53.673901353419275,161.46701599297714,7.119160175323486,0.3065659999847412,6.815954208374023,-3.7723028659820557,-47.586395263671875,-4.240230083465576
2026-04-02 13:03:50.718,1969.72453402,614784272,left_foot,左脚,D4:22:CD:00:84:61,0.14898815751075745,0.46792519092559814,-0.08710767328739166,0.8667529821395874,-1.2120192098686797,-56.835894792531235,161.14906972590924,7.336856842041016,-0.7239899635314941,8.151815414428711,-4.751101493835449,-92.11357879638672,-7.8324384689331055
2026-04-02 13:03:50.748,1969.754526887,614817606,left_foot,左脚,D4:22:CD:00:84:61,0.14528314769268036,0.501541793346405,-0.08772678673267365,0.84832364320755,-0.37008445926540584,-61.21462936633376,160.7826400868048,7.760243892669678,-1.218475103378296,10.332061767578125,16.00694465637207,-128.95233154296875,-7.820049285888672
2026-04-02 13:03:50.808,1969.814375583,614850940,left_foot,左脚,D4:22:CD:00:84:61,0.1395646333694458,0.5505678057670593,-0.08716455101966858,0.818412721157074,1.6653970740583834,-67.7458915553554,159.52678750041161,8.136825561523438,0.41022762656211853,11.356743812561035,27.16412353515625,-194.16110229492188,-14.411139488220215
2026-04-02 13:03:50.808,1969.814966645,614884274,left_foot,左脚,D4:22:CD:00:84:61,0.1280718892812729,0.6201276183128357,-0.09605133533477783,0.7679932117462158,3.0471229770859236,-77.71746161946338,158.60945525311874,8.9188232421875,2.11842942237854,13.640045166015625,15.15307331085205,-297.7777099609375,3.818674325942993
2026-04-02 13:03:50.868,1969.874499468,614917608,left_foot,左脚,D4:22:CD:00:84:61,0.10535751283168793,0.710858166217804,-0.11138623207807541,0.6864209771156311,-174.9590643353651,-87.96041759745398,-22.675653915375502,12.048258781433105,2.675654411315918,17.954360961914062,21.090518951416016,-428.0956115722656,26.70121192932129
2026-04-02 13:03:50.869,1969.875167389,614950942,left_foot,左脚,D4:22:CD:00:84:61,0.06807134300470352,0.8037616610527039,-0.13038161396980286,0.5764844417572021,-172.85047669218005,-70.8150124566684,-23.51344656283111,15.824163436889648,1.7445557117462158,16.783226013183594,38.06597137451172,-511.2955017089844,59.32370376586914
2026-04-02 13:03:50.898,1969.904272665,614984276,left_foot,左脚,D4:22:CD:00:84:61,0.036668743938207626,0.8363604545593262,-0.10838755965232849,0.5361054539680481,-172.59926829751163,-64.78336255668638,-19.46714945860558,16.216930389404297,6.7184906005859375,14.16604232788086,120.06307220458984,-186.39173889160156,-22.398250579833984
2026-04-02 13:03:50.928,1969.934621142,615017610,left_foot,左脚,D4:22:CD:00:84:61,0.07351510226726532,0.8124551773071289,-0.1382114291191101,0.5616137981414795,-174.29727237340433,-68.89036931339439,-23.22204173297752,1.0705418586730957,5.776126861572266,18.896265029907227,-154.18357849121094,125.11876678466797,30.79633331298828
2026-04-02 13:03:50.988,1969.994677392,615050944,left_foot,左脚,D4:22:CD:00:84:61,0.07572237402200699,0.7668872475624084,-0.13653741776943207,0.6225013136863708,-165.8453151623417,-77.27908816841938,-31.526756890187734,5.976676940917969,-2.565425157546997,10.08957576751709,14.584317207336426,256.76153564453125,28.67490005493164
2026-04-02 13:03:51.018,1970.024408441,615084278,left_foot,左脚,D4:22:CD:00:84:61,0.06932348012924194,0.6940476894378662,-0.1511956751346588,0.7004514336585999,-94.5136975776947,-83.34201524261587,-103.45842000756281,3.1934125423431396,0.2949064373970032,7.105362892150879,2.899204969406128,351.993896484375,107.58895874023438
2026-04-02 13:03:51.048,1970.054604065,615117612,left_foot,左脚,D4:22:CD:00:84:61,0.05683422088623047,0.619500994682312,-0.13431286811828613,0.7713292241096497,-34.860784968286865,-76.15466979495068,-160.78992334137175,7.113285064697266,-2.05906081199646,5.955554485321045,89.10066223144531,343.54339599609375,45.97187805175781
2026-04-02 13:03:51.078,1970.084371592,615150946,left_foot,左脚,D4:22:CD:00:84:61,0.05628696084022522,0.5341788530349731,-0.10340855270624161,0.8371328711509705,-15.483402768600982,-64.95809126181715,-177.80146832028765,12.624857902526855,1.8703714609146118,6.588380336761475,96.27139282226562,369.84271240234375,-11.59720516204834
2026-04-02 13:03:51.108,1970.114632427,615184280,left_foot,左脚,D4:22:CD:00:84:61,0.07026266306638718,0.44429081678390503,-0.07143115997314453,0.8902620673179626,-6.210695613613129,-53.236068335067756,174.08954700448237,14.38171100616455,2.1133711338043213,9.498689651489258,67.12346649169922,365.2887878417969,-56.109130859375
2026-04-02 13:03:51.138,1970.144553719,615217614,left_foot,左脚,D4:22:CD:00:84:61,0.09706687927246094,0.3540622591972351,-0.016855789348483086,0.9300181865692139,2.8583957608447674,-41.440425934875556,167.00167431596194,24.560848236083984,-4.0060038566589355,7.6297831535339355,113.50509643554688,354.9398193359375,-133.18197631835938
2026-04-02 13:03:51.168,1970.174631597,615250948,left_foot,左脚,D4:22:CD:00:84:61,0.11343124508857727,0.25988128781318665,0.034301526844501495,0.9583415985107422,8.226299833495728,-29.36216183590241,164.340842414679,29.790851593017578,-0.30679482221603394,-2.999955654144287,113.53511810302734,353.1587219238281,-99.29608154296875
2026-04-02 13:03:51.198,1970.204668882,615284282,left_foot,左脚,D4:22:CD:00:84:61,0.12432999163866043,0.21202373504638672,0.05536481365561485,0.967741072177887,10.029911974766694,-23.365869127521066,163.27905620952356,31.21245765686035,-6.066045761108398,-21.24481773376465,39.48210144042969,173.94485473632812,-56.538455963134766
2026-04-02 13:03:51.228,1970.234652672,615317616,left_foot,左脚,D4:22:CD:00:84:61,0.1450386941432953,0.23110394179821014,0.027096059173345566,0.9616760015487671,7.610938436074977,-25.889325935459514,161.0949084330135,25.761459350585938,-4.915858745574951,-23.353849411010742,-100.1269302368164,-80.48064422607422,-47.56516647338867
2026-04-02 13:03:51.288,1970.294619069,615350950,left_foot,左脚,D4:22:CD:00:84:61,0.14756277203559875,0.27318406105041504,-0.026823006570339203,0.9501980543136597,1.9993918382246263,-31.807970366803218,161.77557100288666,3.972970724105835,-4.119716167449951,15.179888725280762,-158.52635192871094,-170.70252990722656,32.4130744934082
2026-04-02 13:03:51.318,1970.324605216,615384284,left_foot,左脚,D4:22:CD:00:84:61,0.15940223634243011,0.3500957190990448,-0.053400639444589615,0.9215055704116821,1.0089774736066004,-41.47204287475584,159.99016359840527,17.24449920654297,-8.190180778503418,8.626670837402344,-61.45000457763672,-286.6358337402344,-35.74681854248047
2026-04-02 13:03:51.348,1970.354606699,615417618,left_foot,左脚,D4:22:CD:00:84:61,0.157266303896904,0.39662742614746094,-0.061728883534669876,0.902299165725708,1.1289772168224657,-47.32147785832968,159.7312192213763,20.56649398803711,2.1273138523101807,3.6479310989379883,-1.4650909900665283,-170.6316375732422,-2.805262565612793
2026-04-02 13:03:51.378,1970.384474689,615450952,left_foot,左脚,D4:22:CD:00:84:61,0.15266607701778412,0.4231667220592499,-0.07127167284488678,0.8902491331100464,0.20927461932885294,-50.82398615119785,160.4389235296655,10.190900802612305,-0.5485789179801941,4.365326404571533,-11.275506973266602,-99.73812866210938,14.690543174743652
2026-04-02 13:03:51.408,1970.414616983,615484286,left_foot,左脚,D4:22:CD:00:84:61,0.14899712800979614,0.4400778114795685,-0.07869763672351837,0.882007896900177,-0.7333151763631144,-53.10678505758357,161.18963308627207,8.139363288879395,-0.4561823308467865,6.150183200836182,-10.265105247497559,-63.52971267700195,13.141012191772461
2026-04-02 13:03:51.438,1970.444607444,615517620,left_foot,左脚,D4:22:CD:00:84:61,0.14547766745090485,0.4523477554321289,-0.08317138254642487,0.8759568333625793,-1.3996296576787135,-54.75315094122137,161.8657298700964,8.584741592407227,-0.4198687970638275,5.5114426612854,-3.3024985790252686,-44.885772705078125,10.593344688415527
2026-04-02 13:03:51.468,1970.47459886,615550954,left_foot,左脚,D4:22:CD:00:84:61,0.1433885395526886,0.4562608003616333,-0.08739285171031952,0.8738584518432617,-2.2058346626561613,-55.33349869503726,162.5196889347306,8.404644966125488,-0.043965622782707214,5.233326435089111,-7.816956043243408,-13.272149085998535,10.284211158752441
2026-04-02 13:03:51.498,1970.5046013,615584288,left_foot,左脚,D4:22:CD:00:84:61,0.14344704151153564,0.45772507786750793,-0.08959182351827621,0.8728598356246948,-2.5423679287591283,-55.564450142468935,162.67429252239623,7.862954139709473,-1.0791629552841187,5.118052005767822,-5.992836952209473,-2.7663075923919678,1.962436318397522
2026-04-02 13:03:51.558,1970.564616023,615617622,left_foot,左脚,D4:22:CD:00:84:61,0.14357063174247742,0.46139782667160034,-0.09118013828992844,0.8707387447357178,-2.700636670253868,-56.067449968820405,162.71238753806122,7.543771266937256,0.635118842124939,5.546517372131348,-3.5172066688537598,-11.061339378356934,-0.42809149622917175
2026-04-02 13:03:51.591,1970.597358399,615650956,left_foot,左脚,D4:22:CD:00:84:61,0.14360235631465912,0.4646691381931305,-0.09448641538619995,0.8686387538909912,-3.192408853350604,-56.553016164051975,162.94322573427237,7.8983354568481445,-0.6376723647117615,5.040570259094238,-8.747919082641602,-10.91756534576416,2.7652089595794678
2026-04-02 13:03:51.618,1970.624655355,615684290,left_foot,左脚,D4:22:CD:00:84:61,0.14468920230865479,0.46976450085639954,-0.09666884690523148,0.8654718995094299,-3.326983521949079,-57.25748951676796,162.834631206683,7.153858184814453,0.12490680813789368,6.218479633331299,-6.526994705200195,-17.34803009033203,-3.301814079284668
2026-04-02 13:03:51.648,1970.654608417,615717624,left_foot,左脚,D4:22:CD:00:84:61,0.1426415592432022,0.4853740334510803,-0.10332244634628296,0.8563820123672485,-4.338264298125096,-59.40732754411484,163.56258152981746,7.381277561187744,0.04543161392211914,7.965247631072998,-11.555838584899902,-61.75128173828125,6.8761701583862305
2026-04-02 13:03:51.678,1970.684607143,615750958,left_foot,左脚,D4:22:CD:00:84:61,0.13800762593746185,0.5120798945426941,-0.10563230514526367,0.8411718606948853,-4.587663972880741,-62.9550822683963,164.17523696250697,8.35185432434082,-1.6366651058197021,9.5829496383667,8.818325996398926,-103.75973510742188,0.26979100704193115
2026-04-02 13:03:51.708,1970.714372559,615784292,left_foot,左脚,D4:22:CD:00:84:61,0.13096173107624054,0.5550197958946228,-0.10909178107976913,0.8141874670982361,-5.120704761138689,-68.80475935007438,165.23230352812814,8.19468879699707,-0.7648388147354126,11.230063438415527,13.150345802307129,-173.3523406982422,-2.254347085952759
2026-04-02 13:03:51.738,1970.74467681,615817626,left_foot,左脚,D4:22:CD:00:84:61,0.11994922906160355,0.6184743642807007,-0.11524345725774765,0.7679980397224426,-7.82505238797769,-77.85560840900715,168.56974062981303,9.056374549865723,0.4516648054122925,12.51098346710205,15.186040878295898,-270.864501953125,-2.369584321975708
2026-04-02 13:03:51.768,1970.774619707,615850960,left_foot,左脚,D4:22:CD:00:84:61,0.09857440739870071,0.7079975008964539,-0.12466739118099213,0.6880993843078613,-136.4135246083135,-87.34086831721439,-61.756328664393585,10.127482414245605,1.4082963466644287,16.161705017089844,25.969196319580078,-418.3162841796875,7.799784183502197
2026-04-02 13:03:51.798,1970.804527127,615884294,left_foot,左脚,D4:22:CD:00:84:61,0.06775197386741638,0.7988525032997131,-0.14298368990421295,0.5803449153900146,-169.68888641709725,-71.19029042231692,-27.68584820424163,17.82305335998535,4.084789752960205,20.195825576782227,16.385181427001953,-498.1636657714844,42.13818359375
2026-04-02 13:03:51.828,1970.834406305,615917628,left_foot,左脚,D4:22:CD:00:84:61,0.03827487677335739,0.8451019525527954,-0.14037065207958221,0.514426052570343,-170.32791805517053,-61.67011399110236,-24.643933934730306,18.547574996948242,5.19575834274292,15.381636619567871,64.67344665527344,-288.6839294433594,13.835007667541504
2026-04-02 13:03:51.888,1970.894588831,615950962,left_foot,左脚,D4:22:CD:00:84:61,0.07004101574420929,0.8265257477760315,-0.16751888394355774,0.5328106880187988,-171.5530721216259,-64.71971729122878,-28.27291826299717,4.141358852386475,9.517585754394531,21.70452117919922,-133.68820190429688,95.4806137084961,34.89608383178711
2026-04-02 13:03:51.918,1970.924532223,615984296,left_foot,左脚,D4:22:CD:00:84:61,0.06950021535158157,0.7887104153633118,-0.1635177731513977,0.5885300636291504,-164.4452745878255,-72.00593677117523,-34.76080807542455,4.699270248413086,-4.131760597229004,10.980031967163086,31.9035587310791,224.82998657226562,25.57257080078125
2026-04-02 13:03:51.978,1970.984422814,616017630,left_foot,左脚,D4:22:CD:00:84:61,0.06548558175563812,0.7201330661773682,-0.17139014601707458,0.6691378355026245,-125.38786204462393,-80.46469365744271,-73.96431431898529,4.607728481292725,3.9190211296081543,7.1262431144714355,23.590896606445312,349.8413391113281,88.25077056884766
2026-04-02 13:03:51.978,1970.984991834,616050964,left_foot,左脚,D4:22:CD:00:84:61,0.06805220991373062,0.6443347930908203,-0.16305485367774963,0.744053065776825,-53.06335887197567,-78.82232670906447,-145.83792299063356,5.396361827850342,-0.9803375005722046,5.718459129333496,39.22014617919922,359.79925537109375,35.90129470825195
2026-04-02 13:03:52.008,1971.014501237,616084298,left_foot,左脚,D4:22:CD:00:84:61,0.08510898798704147,0.5655249953269958,-0.13488970696926117,0.8091617226600647,-20.6401870886241,-69.7453138469704,-177.54433470991202,11.302000999450684,0.2222757786512375,6.410752296447754,51.480167388916016,358.5205383300781,-45.90597915649414
2026-04-02 13:03:52.038,1971.044532996,616117632,left_foot,左脚,D4:22:CD:00:84:61,0.10550165921449661,0.4753378927707672,-0.09825708717107773,0.8679107427597046,-7.5682768490472965,-57.76141411151714,170.31728098930836,15.16586685180664,2.038289785385132,8.729782104492188,62.28559494018555,382.0869140625,-68.2245101928711
2026-04-02 13:03:52.068,1971.074423322,616150966,left_foot,左脚,D4:22:CD:00:84:61,0.12594524025917053,0.37971121072769165,-0.04725057631731033,0.9152729511260986,0.7414036481466079,-44.98979056446611,164.02312255445494,22.328468322753906,-3.3199520111083984,9.549323081970215,99.34945678710938,385.2908020019531,-94.15977478027344
2026-04-02 13:03:52.098,1971.104486997,616184300,left_foot,左脚,D4:22:CD:00:84:61,0.13691867887973785,0.2871043384075165,0.003982889465987682,0.9480552673339844,5.891282999352779,-32.907936349838266,161.8229309133526,32.070213317871094,0.32111436128616333,-2.0736167430877686,111.52547454833984,356.1896667480469,-71.44589233398438
2026-04-02 13:03:52.128,1971.13453359,616217634,left_foot,左脚,D4:22:CD:00:84:61,0.14733432233333588,0.22805489599704742,0.05023742839694023,0.9611242413520813,10.415701488368734,-25.060483913722994,160.2485671652589,32.398563385009766,-6.977005958557129,-20.214988708496094,111.97663116455078,226.99095153808594,-73.82283782958984
2026-04-02 13:03:52.188,1971.194539442,616250968,left_foot,左脚,D4:22:CD:00:84:61,0.15885958075523376,0.24499854445457458,0.0071873473934829235,0.9563931822776794,5.942851099340089,-27.797381278563147,159.66642818845904,28.752565383911133,-4.576551914215088,-29.351581573486328,-142.47479248046875,-80.85139465332031,-3.7978029251098633
2026-04-02 13:03:52.218,1971.224625193,616284302,left_foot,左脚,D4:22:CD:00:84:61,0.1710708737373352,0.2953796982765198,-0.04205726459622383,0.9389978647232056,1.5386227665021566,-34.68827279647036,158.86911971568003,5.925864219665527,-8.985657691955566,14.471088409423828,-144.6806640625,-202.9903564453125,-7.086241722106934
2026-04-02 13:03:52.248,1971.254417958,616317636,left_foot,左脚,D4:22:CD:00:84:61,0.18083740770816803,0.3751022517681122,-0.06494077295064926,0.9068509936332703,1.4423990934976063,-44.73358373519263,156.85131527041935,24.681610107421875,-5.304294586181641,7.843959808349609,-41.3692512512207,-298.0823669433594,-39.13676452636719
2026-04-02 13:03:52.278,1971.284312168,616350970,left_foot,左脚,D4:22:CD:00:84:61,0.1749584823846817,0.412250280380249,-0.07550450414419174,0.8909200429916382,0.8581314010850535,-49.55104123410723,157.38325369916032,16.34532356262207,0.99830561876297,3.1442995071411133,-5.551662921905518,-138.86288452148438,13.279603958129883
2026-04-02 13:03:52.308,1971.314519988,616384304,left_foot,左脚,D4:22:CD:00:84:61,0.1712583750486374,0.43305978178977966,-0.08334005624055862,0.8810132145881653,0.13904569826640878,-52.336046150095505,157.93083087431035,10.395004272460938,-0.6527913808822632,4.647206783294678,-8.566052436828613,-77.95791625976562,10.643120765686035
2026-04-02 13:03:52.338,1971.344530532,616417638,left_foot,左脚,D4:22:CD:00:84:61,0.1690715253353119,0.44376763701438904,-0.08718261122703552,0.875719428062439,-0.25577808602340985,-53.77590785149939,158.27487255718083,8.018770217895508,-1.1833856105804443,6.089572906494141,-3.329387903213501,-37.876495361328125,5.708732604980469
2026-04-02 13:03:52.368,1971.374522047,616450972,left_foot,左脚,D4:22:CD:00:84:61,0.16756673157215118,0.45130765438079834,-0.08735717087984085,0.8721305727958679,-0.11167997664875454,-54.73342285756905,158.3058465922947,7.902090549468994,-0.15336577594280243,5.823117733001709,5.367380619049072,-23.715333938598633,-0.03647278621792793
2026-04-02 13:03:52.428,1971.434399821,616484306,left_foot,左脚,D4:22:CD:00:84:61,0.16627933084964752,0.45791059732437134,-0.08943800628185272,0.8687174916267395,-0.31563893678463406,-55.622280732855835,158.49489776704002,7.851124286651611,0.6530953645706177,5.411306858062744,-1.198887586593628,-21.95576286315918,2.683458089828491
2026-04-02 13:03:52.429,1971.435547979,616517640,left_foot,左脚,D4:22:CD:00:84:61,0.16396668553352356,0.4659382104873657,-0.09438967704772949,0.8643536567687988,-1.0846980832440927,-56.764427726773086,159.10347266906982,7.049339771270752,0.49255722761154175,5.482215881347656,-7.675278186798096,-29.928464889526367,9.35676097869873
2026-04-02 13:03:52.488,1971.494569785,616550974,left_foot,左脚,D4:22:CD:00:84:61,0.16128574311733246,0.48176419734954834,-0.10104099661111832,0.8553836941719055,-1.9396495097702062,-58.956840999059956,159.74057761619534,6.9182448387146,0.3725474774837494,6.333622932434082,-9.249475479125977,-61.8541259765625,8.084906578063965
2026-04-02 13:03:52.519,1971.525247607,616584308,left_foot,左脚,D4:22:CD:00:84:61,0.15817555785179138,0.49881818890571594,-0.10875459015369415,0.8451824188232422,-3.1128253819574905,-61.35292568856589,160.64630600749496,8.450640678405762,-0.674344539642334,5.0344038009643555,-11.426748275756836,-68.5462417602539,10.043645858764648
2026-04-02 13:03:52.548,1971.554517127,616617642,left_foot,左脚,D4:22:CD:00:84:61,0.15537498891353607,0.510636568069458,-0.11678435653448105,0.8375383615493774,-4.68046527616489,-63.08081687349254,161.85436292690574,8.15212345123291,0.4284830689430237,6.630279541015625,-14.768982887268066,-49.216949462890625,13.057944297790527
2026-04-02 13:03:52.578,1971.584594532,616650976,left_foot,左脚,D4:22:CD:00:84:61,0.15258590877056122,0.5293126106262207,-0.12040036916732788,0.8258629441261292,-5.194986119100389,-65.64696918941985,162.41652318803335,8.819284439086914,-3.5632474422454834,9.061939239501953,-0.043589770793914795,-74.0107650756836,0.36554381251335144
2026-04-02 13:03:52.608,1971.614590523,616684310,left_foot,左脚,D4:22:CD:00:84:61,0.14945277571678162,0.5668253898620605,-0.11838375777006149,0.801472544670105,-3.5327755621346246,-70.73027011288266,161.38220195045596,8.532286643981934,-1.3830859661102295,11.483830451965332,21.217531204223633,-148.3455810546875,-23.53960609436035
2026-04-02 13:03:52.668,1971.674335614,616717644,left_foot,左脚,D4:22:CD:00:84:61,0.14336372911930084,0.6268481612205505,-0.11793462187051773,0.75670325756073,0.38489267884630324,-79.26248458600831,158.22521586593635,8.190500259399414,-0.9622946381568909,11.449223518371582,25.897010803222656,-252.8873748779297,-32.04536437988281
2026-04-02 13:03:52.669,1971.675622646,616750978,left_foot,左脚,D4:22:CD:00:84:61,0.1295546144247055,0.7113224267959595,-0.12218164652585983,0.6799322366714478,156.5256570642439,-87.38705525908327,2.9618663028160257,9.812795639038086,2.445507764816284,16.261796951293945,29.36439323425293,-392.2726135253906,-27.556987762451172
2026-04-02 13:03:52.698,1971.704502704,616784312,left_foot,左脚,D4:22:CD:00:84:61,0.09819914400577545,0.8032642602920532,-0.14187531173229218,0.5700833797454834,-179.30674984775416,-70.68581247690585,-20.52457900712801,19.404632568359375,7.104499340057373,20.44707679748535,25.612533569335938,-507.0267639160156,33.82877731323242
2026-04-02 13:03:52.728,1971.734533855,616817646,left_foot,左脚,D4:22:CD:00:84:61,0.05559677630662918,0.8571083545684814,-0.1386781632900238,0.4929937720298767,-175.33510702751482,-59.37480333890177,-21.04179760028101,14.217657089233398,4.071256160736084,15.939205169677734,104.84214782714844,-339.92718505859375,22.5833740234375
2026-04-02 13:03:52.788,1971.79454055,616850980,left_foot,左脚,D4:22:CD:00:84:61,0.08472990989685059,0.8427777290344238,-0.16614235937595367,0.504919171333313,-176.99679369449532,-61.54885071259734,-24.092911712879484,10.972612380981445,14.000082969665527,20.919958114624023,-129.0700225830078,65.52205657958984,41.383934020996094
2026-04-02 13:03:52.818,1971.824528088,616884314,left_foot,左脚,D4:22:CD:00:84:61,0.0915374606847763,0.8031432032585144,-0.17446096241474152,0.5622680187225342,-172.0273325385612,-69.24476622241637,-30.020325206205083,6.032654762268066,-5.813008785247803,9.655951499938965,-12.646624565124512,232.9344482421875,52.48240280151367
2026-04-02 13:03:52.878,1971.884404811,616917648,left_foot,左脚,D4:22:CD:00:84:61,0.07763423025608063,0.7337601780891418,-0.17977070808410645,0.6505779027938843,-139.69348610333182,-79.31113232668241,-61.373173386266245,3.2127809524536133,5.624624729156494,6.302493095397949,59.21977615356445,364.68914794921875,111.97671508789062
2026-04-02 13:03:52.879,1971.885477366,616950982,left_foot,左脚,D4:22:CD:00:84:61,0.06333228945732117,0.6617320775985718,-0.17474260926246643,0.726336658000946,-69.62382641086045,-79.55013558049647,-129.8409750108803,2.353107213973999,-1.4187465906143188,5.246270656585693,74.36136627197266,341.300537109375,85.2420654296875
2026-04-02 13:03:52.908,1971.914530467,616984316,left_foot,左脚,D4:22:CD:00:84:61,0.06754644215106964,0.5976217985153198,-0.14315232634544373,0.7859982848167419,-30.526843023936525,-73.49562780340766,-166.790211117131,9.85492992401123,-0.4408029317855835,6.164788246154785,90.29066467285156,301.642822265625,-29.862564086914062
2026-04-02 13:03:52.938,1971.944507388,617017650,left_foot,左脚,D4:22:CD:00:84:61,0.09134239703416824,0.5147771835327148,-0.09560250490903854,0.8470662832260132,-8.550854109898557,-62.81873835616133,172.91818492857016,16.72123908996582,3.8788015842437744,7.703173637390137,89.58782958984375,368.99261474609375,-106.09236907958984
2026-04-02 13:03:52.971,1971.977118292,617050984,left_foot,左脚,D4:22:CD:00:84:61,0.1174602136015892,0.41632482409477234,-0.053789783269166946,0.8999907970428467,0.08693853065650331,-49.642009910111796,165.08819681896387,20.657211303710938,-1.1551891565322876,8.631532669067383,61.05345153808594,399.3946838378906,-99.94999694824219
2026-04-02 13:03:52.998,1972.004649278,617084318,left_foot,左脚,D4:22:CD:00:84:61,0.13421399891376495,0.3176782727241516,0.010300624184310436,0.9385952949523926,7.468801679985738,-36.41130022530972,161.26482656980104,31.139930725097656,-0.5333734750747681,-0.6394567489624023,140.9782257080078,387.663330078125,-108.79872131347656
2026-04-02 13:03:53.028,1972.034731606,617117652,left_foot,左脚,D4:22:CD:00:84:61,0.14847113192081451,0.2520069181919098,0.053805261850357056,0.9547534584999084,11.572316289057747,-27.725220931326316,159.45677314626192,30.377641677856445,-8.372440338134766,-16.103992462158203,92.99925994873047,248.7162322998047,-87.54669189453125
2026-04-02 13:03:53.088,1972.095045556,617150986,left_foot,左脚,D4:22:CD:00:84:61,0.16417507827281952,0.2560659348964691,0.044270675629377365,0.9515866637229919,11.013184521849494,-28.216298055023202,157.64651102778402,34.843040466308594,0.6372115612030029,-27.6121826171875,-42.89638900756836,-21.8409366607666,-43.950599670410156
2026-04-02 13:03:53.118,1972.124292822,617184320,left_foot,左脚,D4:22:CD:00:84:61,0.17315806448459625,0.2900485098361969,-0.037356797605752945,0.9404747486114502,2.0852220754234674,-33.95238747131254,158.4987026655453,7.101390361785889,-12.67796516418457,8.010766983032227,-255.09814453125,-164.15829467773438,41.401145935058594
2026-04-02 13:03:53.148,1972.1546406,617217654,left_foot,左脚,D4:22:CD:00:84:61,0.18236090242862701,0.37020793557167053,-0.07150528579950333,0.9080625772476196,0.41312781519891634,-44.30065251742171,157.12116301039265,12.531986236572266,-13.13729476928711,9.31026554107666,-75.997314453125,-307.0596618652344,-25.584074020385742
2026-04-02 13:03:53.178,1972.18462938,617250988,left_foot,左脚,D4:22:CD:00:84:61,0.1793999820947647,0.42123499512672424,-0.08523580431938171,0.8849360942840576,0.025679077697368106,-50.90618355501096,157.06765534871997,24.461383819580078,2.138303279876709,2.055319309234619,-12.38461971282959,-193.49380493164062,-0.8938255906105042
2026-04-02 13:03:53.209,1972.215172589,617284322,left_foot,左脚,D4:22:CD:00:84:61,0.1746474802494049,0.44694751501083374,-0.09714221209287643,0.871951699256897,-1.3090294989136853,-54.42595839160683,158.0207895636672,10.193915367126465,-0.9165816903114319,4.0706071853637695,-16.984952926635742,-100.6506576538086,15.697820663452148
2026-04-02 13:03:53.238,1972.244525872,617317656,left_foot,左脚,D4:22:CD:00:84:61,0.17127922177314758,0.46160900592803955,-0.10458628088235855,0.864084780216217,-2.3462046781042716,-56.466746141853726,158.83619617623032,8.400880813598633,-1.738019585609436,5.844413757324219,-10.627903938293457,-56.617454528808594,11.450211524963379
2026-04-02 13:03:53.268,1972.274543502,617350990,left_foot,左脚,D4:22:CD:00:84:61,0.16969722509384155,0.4717843234539032,-0.1043282002210617,0.8589167594909668,-2.051771087798218,-57.76369706229814,158.77974837488924,8.615386962890625,-1.3277634382247925,5.487729072570801,7.775294303894043,-34.0970573425293,-2.9578311443328857
2026-04-02 13:03:53.298,1972.304519639,617384324,left_foot,左脚,D4:22:CD:00:84:61,0.16809487342834473,0.4759361147880554,-0.10532937198877335,0.8568165302276611,-2.2360845664565883,-58.31957522626164,159.04850868421372,8.048495292663574,1.021118402481079,5.376812934875488,1.658409833908081,-12.327178001403809,3.1092958450317383
2026-04-02 13:03:53.358,1972.364561237,617417658,left_foot,左脚,D4:22:CD:00:84:61,0.16666293144226074,0.476698637008667,-0.10878323763608932,0.8562406301498413,-3.0048522113873153,-58.49535546768391,159.65368065207258,7.762346267700195,-0.1556282490491867,5.3863420486450195,-7.300268650054932,-1.4563347101211548,8.815534591674805
2026-04-02 13:03:53.388,1972.39452546,617450992,left_foot,左脚,D4:22:CD:00:84:61,0.16665750741958618,0.4782179594039917,-0.11117058247327805,0.855087161064148,-3.3950468439038253,-58.747675084199415,159.853840643772,7.656511306762695,-0.815689742565155,5.7485270500183105,-6.285046577453613,-3.7356464862823486,2.2716526985168457
2026-04-02 13:03:53.418,1972.424554743,617484326,left_foot,左脚,D4:22:CD:00:84:61,0.1664372980594635,0.48329266905784607,-0.11379685997962952,0.8519256711006165,-3.726293818535774,-59.4672292442494,160.02002668188638,7.460995197296143,0.35186120867729187,5.411984443664551,-5.371380805969238,-17.939401626586914,0.7922654747962952
2026-04-02 13:03:53.448,1972.454375648,617517660,left_foot,左脚,D4:22:CD:00:84:61,0.16298192739486694,0.49456730484962463,-0.12086989730596542,0.8451216220855713,-5.112740129579121,-61.08503265846094,161.1870471859193,7.421084880828857,0.2742137312889099,6.434326648712158,-10.945873260498047,-46.20609664916992,13.230562210083008
2026-04-02 13:03:53.478,1972.48452043,617550994,left_foot,左脚,D4:22:CD:00:84:61,0.15885481238365173,0.5152588486671448,-0.12525857985019684,0.8328169584274292,-5.862017419711863,-63.90007788601043,162.05963578769075,7.895201206207275,-2.747438669204712,7.831388473510742,0.9699010848999023,-81.98846435546875,3.6249799728393555
2026-04-02 13:03:53.508,1972.514612368,617584328,left_foot,左脚,D4:22:CD:00:84:61,0.15393663942813873,0.5471697449684143,-0.12587027251720428,0.8130594491958618,-5.5982999757399305,-68.20449509660074,162.35045135148133,8.543057441711426,-0.3307047486305237,10.270380020141602,16.121726989746094,-125.9802017211914,-9.823309898376465
2026-04-02 13:03:53.538,1972.544555871,617617662,left_foot,左脚,D4:22:CD:00:84:61,0.14421020448207855,0.598048985004425,-0.13039596378803253,0.7775202393531799,-6.8881130079267985,-75.37503251912854,164.30891624503116,8.220460891723633,-0.5829929709434509,11.98315715789795,17.37436866760254,-213.4872589111328,-5.570302486419678
2026-04-02 13:03:53.568,1972.574390717,617650996,left_foot,左脚,D4:22:CD:00:84:61,0.12804383039474487,0.6702041029930115,-0.1396159529685974,0.7175922393798828,-24.63939644218042,-86.04659635925128,-177.1934308851988,8.977139472961426,0.6739126443862915,14.828635215759277,17.612483978271484,-326.7550048828125,-0.31279340386390686
2026-04-02 13:03:53.598,1972.604523366,617684330,left_foot,左脚,D4:22:CD:00:84:61,0.09612957388162613,0.764521598815918,-0.15853199362754822,0.6173602938652039,-167.46272767203155,-77.02024686008824,-33.4205942167738,14.6793212890625,5.769381999969482,22.874217987060547,20.348237991333008,-488.32147216796875,32.77016830444336
2026-04-02 13:03:53.628,1972.634323933,617717664,left_foot,左脚,D4:22:CD:00:84:61,0.0576038584113121,0.8456119298934937,-0.19676443934440613,0.4928551912307739,-169.23146729708057,-58.89223219287228,-32.28938708384249,12.604232788085938,7.236814975738525,22.231075286865234,-21.048185348510742,-536.2739868164062,97.53108215332031
2026-04-02 13:03:53.688,1972.694451809,617750998,left_foot,左脚,D4:22:CD:00:84:61,0.05185296759009361,0.8597491383552551,-0.1968783587217331,0.4683820307254791,-170.274691300032,-55.66962665979913,-30.940174388014647,24.899497985839844,6.779380798339844,15.385168075561523,2.8256425857543945,-101.52031707763672,-3.7864797115325928
2026-04-02 13:03:53.718,1972.724561051,617784332,left_foot,左脚,D4:22:CD:00:84:61,0.08728232979774475,0.818008542060852,-0.23329336941242218,0.5184767842292786,-167.5008240395283,-62.743040563580585,-39.47598608057892,-0.05119132995605469,-0.11396390199661255,16.711021423339844,-136.90794372558594,229.0263671875,88.81120300292969
2026-04-02 13:03:53.748,1972.754560132,617817666,left_foot,左脚,D4:22:CD:00:84:61,0.062161169946193695,0.7625218629837036,-0.20306672155857086,0.6111142635345459,-147.98604592572727,-73.1805605160907,-53.87084058069046,5.792206287384033,-3.2368814945220947,6.815309524536133,182.0977020263672,344.64105224609375,32.71529006958008
2026-04-02 13:03:53.781,1972.787299315,617851000,left_foot,左脚,D4:22:CD:00:84:61,0.06219102442264557,0.6770500540733337,-0.19845084846019745,0.7059410810470581,-88.70184292642632,-78.69529653953184,-112.64399003658465,2.314270257949829,-0.5143044590950012,6.2996134757995605,56.83509063720703,425.7509765625,68.86652374267578
2026-04-02 13:03:53.808,1972.814552663,617884334,left_foot,左脚,D4:22:CD:00:84:61,0.06888076663017273,0.598353922367096,-0.1611984670162201,0.7818204760551453,-36.17522385415884,-73.29899882578162,-162.7534731933324,4.734933376312256,-3.360191822052002,7.748760223388672,108.85613250732422,376.3702087402344,-32.39329147338867
2026-04-02 13:03:53.838,1972.844580721,617917668,left_foot,左脚,D4:22:CD:00:84:61,0.08467470109462738,0.5126295685768127,-0.1053958460688591,0.8478991389274597,-11.489579538410132,-62.5191311341942,175.5836895732289,20.626338958740234,0.02600516378879547,8.97698974609375,133.02108764648438,384.5960388183594,-93.52223205566406
2026-04-02 13:03:53.868,1972.874608723,617951002,left_foot,左脚,D4:22:CD:00:84:61,0.11901317536830902,0.4007851183414459,-0.05083474889397621,0.9069856405258179,0.27089121346607564,-47.65588818346431,164.92926750617315,28.526046752929688,1.8712443113327026,7.9878644943237305,86.63956451416016,455.6895446777344,-137.93466186523438
2026-04-02 13:03:53.899,1972.905225054,617984336,left_foot,左脚,D4:22:CD:00:84:61,0.14403478801250458,0.29633286595344543,0.0076870243065059185,0.9441301226615906,6.909160557350788,-33.871984069525766,160.54565879789146,34.52921676635742,-0.595818042755127,-6.928145408630371,111.12508392333984,403.3441162109375,-124.44084167480469
2026-04-02 13:03:53.928,1972.934589155,618017670,left_foot,左脚,D4:22:CD:00:84:61,0.16492529213428497,0.25610557198524475,0.061048977077007294,0.9505170583724976,13.105465388951158,-27.822135716400137,157.05378364137235,31.896453857421875,-11.5604248046875,-26.147817611694336,131.23655700683594,162.65769958496094,-119.47056579589844
2026-04-02 13:03:53.988,1972.994637099,618051004,left_foot,左脚,D4:22:CD:00:84:61,0.1623905599117279,0.2751971483230591,0.018103256821632385,0.947400689125061,8.299269156326975,-31.035185159925234,158.23924801446063,28.662078857421875,0.10245710611343384,-23.999460220336914,-127.21038818359375,-86.18336486816406,48.36566925048828
2026-04-02 13:03:54.018,1973.024238582,618084338,left_foot,左脚,D4:22:CD:00:84:61,0.1740945428609848,0.32271555066108704,-0.04837389662861824,0.929088830947876,1.6360080824270251,-38.061422546169666,158.20941236029145,0.07667136192321777,-12.232732772827148,16.379772186279297,-200.59222412109375,-205.8192596435547,17.48567008972168
2026-04-02 13:03:54.048,1973.054496723,618117672,left_foot,左脚,D4:22:CD:00:84:61,0.18392601609230042,0.40214186906814575,-0.07377958297729492,0.8938735127449036,1.379413089955865,-48.25089624100882,156.12806221584168,28.41032600402832,-7.41750431060791,6.524040222167969,-50.16348648071289,-302.91455078125,-37.968902587890625
2026-04-02 13:03:54.078,1973.084579555,618151006,left_foot,左脚,D4:22:CD:00:84:61,0.17618024349212646,0.4390338659286499,-0.09194783121347427,0.8762166500091553,-0.6168801483257537,-53.30004950602121,157.5719292551928,16.207685470581055,2.676851749420166,2.6779873371124268,-25.960649490356445,-146.23025512695312,27.880104064941406
2026-04-02 13:03:54.108,1973.114532372,618184340,left_foot,左脚,D4:22:CD:00:84:61,0.16918203234672546,0.45746904611587524,-0.10563552379608154,0.8665683269500732,-2.8964828021108553,-55.95515298450202,159.44481947385282,10.311768531799316,-2.504756212234497,4.3415303230285645,-22.22662353515625,-75.30198669433594,29.629880905151367
2026-04-02 13:03:54.138,1973.14428493,618217674,left_foot,左脚,D4:22:CD:00:84:61,0.1661592721939087,0.4672233462333679,-0.10838457196950912,0.8615953326225281,-3.339054159399607,-57.25994159336445,159.99208590203062,8.211725234985352,-2.7580726146698,5.963491439819336,0.8660153150558472,-34.341270446777344,6.323054313659668
2026-04-02 13:03:54.168,1973.174576009,618251008,left_foot,左脚,D4:22:CD:00:84:61,0.16519302129745483,0.47180190682411194,-0.10474573820829391,0.8597341179847717,-2.6035461047736566,-57.763631868320765,159.68332936854506,7.958620548248291,0.0070042721927165985,5.779643535614014,14.737395286560059,-9.796599388122559,-6.442427158355713
2026-04-02 13:03:54.198,1973.204569244,618284342,left_foot,左脚,D4:22:CD:00:84:61,0.16469182074069977,0.47203710675239563,-0.10520119965076447,0.8596457242965698,-2.7312559554046665,-57.80293920288711,159.81727967246897,7.791330814361572,0.9814315438270569,5.4151716232299805,0.004165265709161758,3.565451145172119,1.4462307691574097
2026-04-02 13:03:54.228,1973.23454142,618317676,left_foot,左脚,D4:22:CD:00:84:61,0.16419324278831482,0.47242453694343567,-0.10767511278390884,0.8592216372489929,-3.225778380918533,-57.90774241649801,160.14795959947057,7.026347637176514,-0.5104971528053284,5.847310543060303,-6.048060894012451,1.2518378496170044,4.557480335235596
2026-04-02 13:03:54.288,1973.29470129,618351010,left_foot,左脚,D4:22:CD:00:84:61,0.16531367599964142,0.47690898180007935,-0.10839862376451492,0.8564339280128479,-3.0719280175466164,-58.50892129432284,159.8705832167838,7.479353427886963,-0.8651008605957031,5.852286338806152,-2.063352108001709,-13.325140953063965,-5.9434051513671875
2026-04-02 13:03:54.318,1973.324603862,618384344,left_foot,左脚,D4:22:CD:00:84:61,0.1649232655763626,0.4855858087539673,-0.1124134436249733,0.8510993719100952,-3.546274825155685,-59.72806508972082,160.10332591037664,7.313924312591553,1.3785802125930786,5.794126510620117,-7.868472576141357,-32.476985931396484,0.9177783131599426
2026-04-02 13:03:54.348,1973.354627355,618417678,left_foot,左脚,D4:22:CD:00:84:61,0.1615273803472519,0.501258909702301,-0.12200292199850082,0.8412869572639465,-5.294746455667424,-61.984279611778916,161.4447753104315,7.240417003631592,0.20812830328941345,7.56381368637085,-16.99852180480957,-64.97344970703125,13.906392097473145
2026-04-02 13:03:54.378,1973.384540916,618451012,left_foot,左脚,D4:22:CD:00:84:61,0.1557663381099701,0.5274983644485474,-0.12750402092933655,0.8253637552261353,-6.405919823067174,-65.5714187134958,162.75375966088262,8.42782974243164,-2.5142550468444824,9.208736419677734,2.200702667236328,-105.15965270996094,5.843379497528076
2026-04-02 13:03:54.408,1973.414408276,618484346,left_foot,左脚,D4:22:CD:00:84:61,0.1458447128534317,0.5676336884498596,-0.13445726037025452,0.7990260720252991,-8.773217788128022,-71.1429479923785,165.59196401398125,8.16625690460205,0.03737606108188629,11.832868576049805,8.48089599609375,-166.6576385498047,8.544657707214355
2026-04-02 13:03:54.438,1973.444626257,618517680,left_foot,左脚,D4:22:CD:00:84:61,0.1303156167268753,0.6296520233154297,-0.14590995013713837,0.751842200756073,-18.579979229519026,-80.00614821145477,175.96595878948327,8.26577377319336,0.9486549496650696,13.115090370178223,8.304906845092773,-273.2951965332031,12.180391311645508
2026-04-02 13:03:54.469,1973.475434863,618551014,left_foot,左脚,D4:22:CD:00:84:61,0.10174229741096497,0.7140023708343506,-0.16076409816741943,0.6737983226776123,-134.97273889456903,-84.21098320334575,-66.44948200627283,9.631607055664062,1.95941162109375,17.806367874145508,22.194242477416992,-407.5897216796875,28.378400802612305
2026-04-02 13:03:54.498,1973.504311099,618584348,left_foot,左脚,D4:22:CD:00:84:61,0.057608287781476974,0.8078571557998657,-0.19240084290504456,0.5541029572486877,-162.42479160835492,-66.55461927694587,-38.37868184011119,18.560691833496094,4.564236640930176,20.9819278717041,1.6208057403564453,-549.4043579101562,86.54654693603516
2026-04-02 13:03:54.528,1973.534517904,618617682,left_foot,左脚,D4:22:CD:00:84:61,0.02621232345700264,0.8490117788314819,-0.20059750974178314,0.4881111979484558,-163.837596805201,-57.07055142213329,-35.41675542133437,21.528841018676758,5.3756422996521,13.042256355285645,35.970916748046875,-286.6426086425781,42.88344955444336
2026-04-02 13:03:54.589,1973.595338096,618651016,left_foot,左脚,D4:22:CD:00:84:61,0.06030631065368652,0.8250722289085388,-0.2231724113225937,0.5155705809593201,-164.18505410362656,-61.36415899998314,-39.69358096078384,6.0051374435424805,8.780987739562988,19.49310874938965,-120.68419647216797,137.68707275390625,28.94645118713379
2026-04-02 13:03:54.618,1973.624529274,618684350,left_foot,左脚,D4:22:CD:00:84:61,0.05827833339571953,0.7820085883140564,-0.21827535331249237,0.5808806419372559,-152.9683542709873,-69.05892950851525,-49.972760568671305,-0.4763776659965515,-2.6494436264038086,10.43746566772461,55.26066207885742,255.80389404296875,37.62549591064453
2026-04-02 13:03:54.648,1973.654354791,618717684,left_foot,左脚,D4:22:CD:00:84:61,0.03038429096341133,0.7289705872535706,-0.20599018037319183,0.6521095037460327,-123.3507310611782,-74.41969486166808,-76.07362469961932,1.482734203338623,-0.2520464360713959,6.468287467956543,141.54917907714844,273.4143981933594,78.39447784423828
2026-04-02 13:03:54.678,1973.684543604,618751018,left_foot,左脚,D4:22:CD:00:84:61,0.02165912091732025,0.6644576787948608,-0.1701214462518692,0.7273826599121094,-74.87593270241507,-76.9059208368718,-120.81474403146169,7.787540912628174,0.15512557327747345,5.49119758605957,147.59666442871094,325.3575134277344,-14.930638313293457
2026-04-02 13:03:54.708,1973.714217226,618784352,left_foot,左脚,D4:22:CD:00:84:61,0.045809321105480194,0.5918955206871033,-0.12800656259059906,0.7944656610488892,-29.232130051091744,-72.21491911484593,-165.06028063578495,8.780068397521973,-3.135326385498047,7.362868309020996,82.39171600341797,346.33477783203125,-107.2748794555664
2026-04-02 13:03:54.738,1973.744534982,618817686,left_foot,左脚,D4:22:CD:00:84:61,0.07162870466709137,0.5139364004135132,-0.08597640693187714,0.8504980802536011,-9.030058845754,-62.43920739162806,175.8520497764025,14.697526931762695,-1.9802019596099854,9.913516998291016,73.09507751464844,338.9764404296875,-111.14250183105469
2026-04-02 13:03:54.768,1973.774535133,618851020,left_foot,左脚,D4:22:CD:00:84:61,0.09684719145298004,0.4207957983016968,-0.024041585624217987,0.9016505479812622,3.3866249415018976,-49.771786309818026,166.1672503566184,25.038244247436523,-4.68809175491333,6.024727821350098,127.6528091430664,379.9249267578125,-141.5277862548828
2026-04-02 13:03:54.798,1973.804521571,618884354,left_foot,左脚,D4:22:CD:00:84:61,0.1060035452246666,0.3212721049785614,0.023321062326431274,0.9407463669776917,8.043559485476072,-36.83601692667168,164.45956677009804,29.95979118347168,-1.620905876159668,-2.0955331325531006,102.73359680175781,377.40777587890625,-74.03715515136719
2026-04-02 13:03:54.829,1973.835455659,618917688,left_foot,左脚,D4:22:CD:00:84:61,0.12224987149238586,0.26821520924568176,0.056662656366825104,0.9538894295692444,11.552110833763148,-29.857279818328838,162.30394875104068,29.495628356933594,-9.65395736694336,-20.405582427978516,68.6093978881836,194.7882080078125,-87.66203308105469
2026-04-02 13:03:54.888,1973.894626839,618951022,left_foot,左脚,D4:22:CD:00:84:61,0.14697884023189545,0.28248801827430725,0.015245064161717892,0.9478213787078857,7.591105714309446,-32.07405605482105,160.18572238959925,28.91825294494629,-6.374077796936035,-27.03150177001953,-152.04086303710938,-73.1544418334961,-42.404476165771484
2026-04-02 13:03:54.918,1973.924694709,618984356,left_foot,左脚,D4:22:CD:00:84:61,0.1452960968017578,0.32502320408821106,-0.03869347646832466,0.9336766600608826,1.6180340733601295,-38.183129602572556,161.74941944801907,3.178647994995117,-7.2735595703125,15.487651824951172,-152.17648315429688,-175.51132202148438,52.822654724121094
2026-04-02 13:03:54.948,1973.954426618,619017690,left_foot,左脚,D4:22:CD:00:84:61,0.15341760218143463,0.4017793834209442,-0.07599005848169327,0.8995898365974426,-1.156755844412701,-48.26138951911315,161.16178118672542,24.89915657043457,-6.848597049713135,7.265552520751953,-94.77824401855469,-298.8560485839844,-12.057134628295898
2026-04-02 13:03:54.978,1973.98461355,619051024,left_foot,左脚,D4:22:CD:00:84:61,0.14912651479244232,0.4419296979904175,-0.08702119439840317,0.880276620388031,-2.062290661001588,-53.51330269741038,161.8096350159762,15.789116859436035,-0.8219265937805176,3.488492727279663,-11.434566497802734,-152.77569580078125,7.054318904876709
2026-04-02 13:03:55.008,1974.014625559,619084358,left_foot,左脚,D4:22:CD:00:84:61,0.14615190029144287,0.463322252035141,-0.09245844185352325,0.8691511750221252,-2.615750718093926,-56.348132182612815,162.31068518969337,11.140726089477539,-0.9505882859230042,3.717129707336426,-3.678187847137451,-79.84744262695312,4.331841468811035
2026-04-02 13:03:55.038,1974.04472212,619117692,left_foot,左脚,D4:22:CD:00:84:61,0.14566263556480408,0.4726925194263458,-0.09345032274723053,0.8640668392181396,-2.5427071930549605,-57.57564267267056,162.25964328705925,8.47384262084961,-1.2231191396713257,5.9596452713012695,1.513504147529602,-31.16820526123047,-3.355975866317749
2026-04-02 13:03:55.068,1974.074408982,619151026,left_foot,左脚,D4:22:CD:00:84:61,0.14533637464046478,0.47900718450546265,-0.09084354341030121,0.8609163761138916,-1.8760312579821998,-58.339799714729864,161.8830613297544,7.8679890632629395,-0.6184666752815247,5.793406963348389,11.033426284790039,-17.26405906677246,-7.8204803466796875
2026-04-02 13:03:55.098,1974.104681837,619184360,left_foot,左脚,D4:22:CD:00:84:61,0.14478877186775208,0.4827943742275238,-0.09008480608463287,0.8589707612991333,-1.6549118136266545,-58.81488782452704,161.79706114608834,7.720231533050537,0.5745602250099182,5.445635795593262,5.011699676513672,-8.979903221130371,-2.73673415184021
2026-04-02 13:03:55.128,1974.13462989,619217694,left_foot,左脚,D4:22:CD:00:84:61,0.14357486367225647,0.4864640533924103,-0.09252046048641205,0.8568423986434937,-2.119901227165383,-59.340543123363226,162.18326843742634,7.392159461975098,0.89048832654953,5.512637138366699,-3.4895386695861816,-10.910903930664062,4.567319869995117
2026-04-02 13:03:55.188,1974.194276131,619251028,left_foot,左脚,D4:22:CD:00:84:61,0.14259783923625946,0.48959311842918396,-0.09620223939418793,0.8548154830932617,-2.8323665799007305,-59.821108853239274,162.68818298723843,7.839386463165283,-0.5831137299537659,5.484825611114502,-7.83095121383667,-9.888348579406738,6.264458179473877
2026-04-02 13:03:55.218,1974.224724234,619284362,left_foot,左脚,D4:22:CD:00:84:61,0.1415223330259323,0.4950518310070038,-0.10134942084550858,0.8512483239173889,-3.791339730473524,-60.634615540698505,163.33906271927725,7.400761604309082,0.3273651599884033,5.657721042633057,-11.342409133911133,-20.26535987854004,7.5177202224731445
2026-04-02 13:03:55.248,1974.254661618,619317696,left_foot,左脚,D4:22:CD:00:84:61,0.13909250497817993,0.5068347454071045,-0.10760456323623657,0.8439154624938965,-5.013536489242668,-62.29895241306131,164.31302114050905,7.479763507843018,-0.21546590328216553,6.722208499908447,-10.561729431152344,-46.44019317626953,9.412227630615234
2026-04-02 13:03:55.278,1974.28469783,619351030,left_foot,左脚,D4:22:CD:00:84:61,0.13462327420711517,0.5287148356437683,-0.11168377846479416,0.8305805921554565,-5.924978023000158,-65.27843852278602,165.38364202095366,7.723283290863037,-1.2830952405929565,8.76308822631836,1.8970669507980347,-86.28565216064453,4.906023979187012
2026-04-02 13:03:55.338,1974.344498451,619384364,left_foot,左脚,D4:22:CD:00:84:61,0.12567073106765747,0.5641019344329834,-0.1177288219332695,0.8075493574142456,-8.193913662485315,-70.16442891675251,168.06912704686496,8.34688949584961,0.1203824132680893,11.496177673339844,6.904975414276123,-145.7895965576172,11.573065757751465
2026-04-02 13:03:55.339,1974.345730167,619417698,left_foot,左脚,D4:22:CD:00:84:61,0.11451726406812668,0.6204285025596619,-0.12269145995378494,0.7660948634147644,-12.920103037583667,-78.15723979529575,173.50356598637444,8.208298683166504,-1.9328428506851196,12.045066833496094,15.661861419677734,-241.1368865966797,-0.9076928496360779
2026-04-02 13:03:55.368,1974.374618586,619451032,left_foot,左脚,D4:22:CD:00:84:61,0.09941499680280685,0.6985064148902893,-0.12789411842823029,0.6970284581184387,-102.22203833465937,-87.68911855169424,-96.28050768750107,9.045456886291504,-0.2585946321487427,16.132736206054688,20.21315574645996,-360.7043151855469,-10.163338661193848
2026-04-02 13:03:55.398,1974.404546088,619484366,left_foot,左脚,D4:22:CD:00:84:61,0.07003690302371979,0.7942742109298706,-0.1432083398103714,0.5862719416618347,-169.39981331914777,-72.06026143761545,-28.161713291856948,15.8246431350708,5.163822174072266,21.46272850036621,17.778871536254883,-516.0758056640625,26.677244186401367
2026-04-02 13:03:55.428,1974.434528842,619517700,left_foot,左脚,D4:22:CD:00:84:61,0.03059621900320053,0.8637694120407104,-0.15379127860069275,0.47886815667152405,-170.07137456095398,-56.79055441455154,-25.567916956756214,7.490594387054443,1.509658932685852,16.22509002685547,50.11833572387695,-459.8082275390625,48.56256103515625
