local_time,arrival_time_monotonic,timestamp_us,role,role_label,mac_address,quat_w,quat_x,quat_y,quat_z,euler_x,euler_y,euler_z,acc_x,acc_y,acc_z,gyro_x,gyro_y,gyro_z
2026-04-02 13:03:43.823,1962.829464196,701634232,right_foot,右脚,D4:22:CD:00:85:22,0.3871403932571411,0.3659122586250305,-0.2595711350440979,0.8055144548416138,-12.719513806402958,-52.23001954436315,134.91582207918748,5.427619934082031,1.5033148527145386,-0.41166257858276367,-13.449789047241211,10.434332847595215,-10.269612312316895
2026-04-02 13:03:43.854,1962.860411055,701650899,right_foot,右脚,D4:22:CD:00:85:22,0.387661337852478,0.3667408227920532,-0.2572048604488373,0.8056461811065674,-12.25919022220415,-52.21760004068768,134.63359961546243,7.5599045753479,-1.4150201082229614,5.271570205688477,5.768613815307617,-24.25385856628418,-4.006347179412842
2026-04-02 13:03:43.883,1962.889411838,701684233,right_foot,右脚,D4:22:CD:00:85:22,0.3865857422351837,0.3744933605194092,-0.2580757141113281,0.8023113012313843,-11.994750591573409,-53.1737690727857,134.5663059532775,7.6286821365356445,-0.9599418044090271,5.175542831420898,6.348174571990967,-20.67612648010254,-4.774176120758057
2026-04-02 13:03:43.913,1962.919515652,701717567,right_foot,右脚,D4:22:CD:00:85:22,0.3871152102947235,0.38274651765823364,-0.2583743929862976,0.7980537414550781,-11.44053436796665,-54.18843659484567,134.1137064152964,7.4256272315979,-1.5074210166931152,5.333577632904053,8.848749160766602,-19.236169815063477,-8.528162956237793
2026-04-02 13:03:43.943,1962.949455973,701750901,right_foot,右脚,D4:22:CD:00:85:22,0.3874169588088989,0.38958126306533813,-0.25879016518592834,0.7944572567939758,-10.999424008643324,-55.03783292894905,133.75106477413914,7.628294944763184,-0.6491747498512268,5.5286688804626465,11.029441833496094,-22.632043838500977,-11.248564720153809
2026-04-02 13:03:43.973,1962.979547468,701784235,right_foot,右脚,D4:22:CD:00:85:22,0.388550728559494,0.3955388367176056,-0.257919043302536,0.7912365198135376,-10.30875950508462,-55.72648784068376,133.1520247984803,7.851527214050293,-0.7075843811035156,5.288986682891846,8.234831809997559,-19.256908416748047,-7.677927494049072
2026-04-02 13:03:44.003,1963.009465408,701817569,right_foot,右脚,D4:22:CD:00:85:22,0.38992202281951904,0.4005821943283081,-0.2567150592803955,0.7884112000465393,-9.583699784442308,-56.28869061706849,132.50435776334612,7.772474765777588,-0.5813371539115906,5.160769939422607,8.12175178527832,-14.870247840881348,-7.582918643951416
2026-04-02 13:03:44.033,1963.039567752,701850903,right_foot,右脚,D4:22:CD:00:85:22,0.39132943749427795,0.407421737909317,-0.2556222081184387,0.7845548391342163,-8.700419078544726,-57.07198802902069,131.71815315628587,7.502693176269531,-1.3708022832870483,5.589669227600098,9.715850830078125,-22.355749130249023,-11.323464393615723
2026-04-02 13:03:44.093,1963.099370014,701884237,right_foot,右脚,D4:22:CD:00:85:22,0.39317432045936584,0.4180237054824829,-0.2547840178012848,0.778302788734436,-7.4282413494630894,-58.32574158092632,130.54622376410532,7.58456563949585,-1.1401307582855225,5.886569499969482,12.962994575500488,-38.315242767333984,-21.84925651550293
2026-04-02 13:03:44.123,1963.129553406,701917571,right_foot,右脚,D4:22:CD:00:85:22,0.3940123915672302,0.43211135268211365,-0.25516217947006226,0.7700170874595642,-6.031527675967251,-60.05905986564903,129.29157428532906,8.038601875305176,-0.06767506897449493,6.47408390045166,9.997607231140137,-55.0067138671875,-26.6216983795166
2026-04-02 13:03:44.153,1963.159389867,701950905,right_foot,右脚,D4:22:CD:00:85:22,0.39383283257484436,0.4469913840293884,-0.25846925377845764,0.7604525685310364,-5.023031087712901,-62.0575613153531,128.2641938578284,8.480935096740723,0.4637638330459595,6.377346515655518,2.5641660690307617,-65.89591217041016,-20.060544967651367
2026-04-02 13:03:44.183,1963.189342455,701984239,right_foot,右脚,D4:22:CD:00:85:22,0.3914279341697693,0.4649503529071808,-0.26583072543144226,0.748291015625,-4.539670463929051,-64.68135298584792,127.64751487534637,8.609225273132324,-0.28579068183898926,7.366082668304443,-3.4668705463409424,-86.81421661376953,-12.72711181640625
2026-04-02 13:03:44.213,1963.21941206,702017573,right_foot,右脚,D4:22:CD:00:85:22,0.38797739148139954,0.4904789626598358,-0.2761693000793457,0.7298181056976318,-3.5174538319599398,-68.46846781152757,126.40296786780571,8.745474815368652,-1.2614630460739136,7.652560234069824,-4.509679317474365,-124.22469329833984,-21.557363510131836
2026-04-02 13:03:44.243,1963.249360864,702050907,right_foot,右脚,D4:22:CD:00:85:22,0.38361120223999023,0.528320848941803,-0.28752702474594116,0.7007482051849365,0.4915636599225255,-73.95328683897527,122.23457801053847,9.479290962219238,-2.817126989364624,9.415882110595703,1.9141799211502075,-178.3142852783203,-45.60081481933594
2026-04-02 13:03:44.273,1963.279412499,702084241,right_foot,右脚,D4:22:CD:00:85:22,0.3814414143562317,0.579281210899353,-0.3017656207084656,0.654120147228241,17.809981337971635,-81.13377765173684,104.22403141242607,11.900677680969238,-4.249710559844971,10.789102554321289,-7.748345851898193,-248.33633422851562,-85.49555206298828
2026-04-02 13:03:44.304,1963.310222698,702117575,right_foot,右脚,D4:22:CD:00:85:22,0.3807750344276428,0.6367089152336121,-0.3146517276763916,0.5921204686164856,94.48602278063042,-83.53436801863293,26.50065896716568,11.247507095336914,-4.0673298835754395,9.999763488769531,-14.010276794433594,-295.418212890625,-123.66705322265625
2026-04-02 13:03:44.333,1963.339325696,702150909,right_foot,右脚,D4:22:CD:00:85:22,0.38209402561187744,0.679655909538269,-0.31899017095565796,0.5388112664222717,125.95042055038357,-77.46951186314776,-5.781124292369272,8.931774139404297,-4.733282089233398,4.380970001220703,-10.092519760131836,-236.09400939941406,-123.07643127441406
2026-04-02 13:03:44.393,1963.399352289,702184243,right_foot,右脚,D4:22:CD:00:85:22,0.37600475549697876,0.6836604475975037,-0.31952720880508423,0.5377092957496643,129.18529410442605,-77.29322746200769,-8.505620246910022,14.62688159942627,-7.61610746383667,6.530776023864746,19.868440628051758,-44.71770477294922,-9.940529823303223
2026-04-02 13:03:44.423,1963.429436162,702217577,right_foot,右脚,D4:22:CD:00:85:22,0.3727579712867737,0.6695592999458313,-0.30956628918647766,0.5629482269287109,120.37426393304779,-79.94509312870065,1.68733275260572,-1.3321205377578735,-0.2745434045791626,8.969003677368164,38.04935073852539,65.45612335205078,10.808823585510254
2026-04-02 13:03:44.453,1963.459345253,702250911,right_foot,右脚,D4:22:CD:00:85:22,0.39304736256599426,0.6298152208328247,-0.32153934240341187,0.5877578258514404,90.0534555651595,-83.2740863607883,29.129683441849508,3.619340658187866,-1.7589479684829712,6.112256050109863,-91.0666732788086,110.21487426757812,46.058555603027344
2026-04-02 13:03:44.483,1963.489368972,702284245,right_foot,右脚,D4:22:CD:00:85:22,0.4063549041748047,0.5771870017051697,-0.314657986164093,0.6346033811569214,27.194538416386305,-81.22499902467285,91.30033721976191,5.585970401763916,-0.5924031734466553,5.488489151000977,-30.430763244628906,203.41490173339844,63.32719421386719
2026-04-02 13:03:44.513,1963.519538981,702317579,right_foot,右脚,D4:22:CD:00:85:22,0.4175587594509125,0.5129872560501099,-0.3111989200115204,0.6823813319206238,0.7554403324026541,-73.73841274314198,116.50732726401566,5.330865383148193,1.6109338998794556,6.3452467918396,-48.703731536865234,224.8111572265625,90.92904663085938
2026-04-02 13:03:44.543,1963.549442828,702350913,right_foot,右脚,D4:22:CD:00:85:22,0.4283594787120819,0.44203412532806396,-0.3042304217815399,0.7270199060440063,-8.537267459523422,-64.60531677274798,124.39048278484766,9.809103012084961,0.5895740985870361,6.1546502113342285,-53.22572326660156,241.30271911621094,90.67459106445312
2026-04-02 13:03:44.574,1963.580416871,702384247,right_foot,右脚,D4:22:CD:00:85:22,0.43440037965774536,0.36177900433540344,-0.29162490367889404,0.7716004252433777,-13.435444050606515,-54.258590776117494,128.14945521755718,11.076183319091797,0.003416121006011963,6.778118133544922,-46.176753997802734,270.474365234375,105.45042419433594
2026-04-02 13:03:44.603,1963.609403438,702417581,right_foot,右脚,D4:22:CD:00:85:22,0.43118560314178467,0.2775522470474243,-0.2768893837928772,0.8126353025436401,-16.91824361782284,-43.6205190728829,130.91093096508612,11.673656463623047,-1.032097339630127,7.734677791595459,-39.2209358215332,273.38677978515625,127.71707916259766
2026-04-02 13:03:44.634,1963.640367572,702450915,right_foot,右脚,D4:22:CD:00:85:22,0.4184923470020294,0.19556038081645966,-0.2622719407081604,0.8472506999969482,-19.656834834616866,-33.4284302116582,133.3825037838588,13.697813987731934,-1.730986475944519,9.260639190673828,-34.2385368347168,256.3668518066406,144.7010040283203
2026-04-02 13:03:44.694,1963.700306104,702484249,right_foot,右脚,D4:22:CD:00:85:22,0.4061089754104614,0.1154588907957077,-0.2558331787586212,0.8696519136428833,-22.630190162437906,-24.11756332625069,134.832180369442,17.413381576538086,-0.36993443965911865,8.36497974395752,-67.7807846069336,241.4462127685547,134.22792053222656
2026-04-02 13:03:44.723,1963.729337373,702517583,right_foot,右脚,D4:22:CD:00:85:22,0.4039875268936157,0.04237448051571846,-0.25601574778556824,0.8771857023239136,-25.617058695361976,-16.331528208219844,134.28017836157215,20.508180618286133,1.09683096408844,-0.5431967973709106,-95.18789672851562,218.6226348876953,80.99077606201172
2026-04-02 13:03:44.753,1963.759334502,702550917,right_foot,右脚,D4:22:CD:00:85:22,0.3993827998638153,0.004853514954447746,-0.2673172056674957,0.8769329786300659,-28.480847775549293,-12.828655685308926,134.2965467131464,20.67558479309082,7.396751403808594,-10.763433456420898,-85.73441314697266,93.15532684326172,48.26899337768555
2026-04-02 13:03:44.783,1963.789328612,702584251,right_foot,右脚,D4:22:CD:00:85:22,0.401959091424942,0.030314018949866295,-0.2614342272281647,0.8770190477371216,-26.748972530177067,-15.268551832279254,134.40443107491876,17.566410064697266,2.3186514377593994,-13.151711463928223,52.81967544555664,-66.50064086914062,-31.074995040893555
2026-04-02 13:03:44.813,1963.819375603,702617585,right_foot,右脚,D4:22:CD:00:85:22,0.4074597656726837,0.09189106523990631,-0.23138484358787537,0.8786318302154541,-20.739738363347765,-20.489563802650764,134.03008769776352,4.542852401733398,-5.676873207092285,11.068646430969238,176.87646484375,-139.52552795410156,-73.01516723632812
2026-04-02 13:03:44.843,1963.849568179,702650919,right_foot,右脚,D4:22:CD:00:85:22,0.3925152122974396,0.1594214290380478,-0.22414717078208923,0.8776530623435974,-17.543378233394463,-27.1161395650454,136.07048475235004,7.75174617767334,5.936007022857666,9.28834056854248,120.59089660644531,-206.90316772460938,-12.501935958862305
2026-04-02 13:03:44.873,1963.879559347,702684253,right_foot,右脚,D4:22:CD:00:85:22,0.39266321063041687,0.2091934233903885,-0.23322254419326782,0.8646739721298218,-16.563797661781827,-33.019468712542114,136.09367854388321,19.968856811523438,0.36720019578933716,6.419755935668945,29.692930221557617,-170.21600341796875,-51.55738067626953
2026-04-02 13:03:44.906,1963.912228589,702717587,right_foot,右脚,D4:22:CD:00:85:22,0.39445626735687256,0.2322620302438736,-0.23372822999954224,0.8578051924705505,-15.54405471302058,-35.652111837916635,135.63603614813908,10.242840766906738,1.4763909578323364,6.4805097579956055,22.892642974853516,-73.3704605102539,-32.93705749511719
2026-04-02 13:03:44.933,1963.939309386,702750921,right_foot,右脚,D4:22:CD:00:85:22,0.39304402470588684,0.24419991672039032,-0.2366817146539688,0.8543212413787842,-15.449003250090731,-37.10681743472542,135.80213999706834,8.16620922088623,-0.32961612939834595,5.989206790924072,5.84699821472168,-43.81981658935547,-8.007942199707031
2026-04-02 13:03:44.993,1963.999487671,702784255,right_foot,右脚,D4:22:CD:00:85:22,0.39004191756248474,0.25220903754234314,-0.24032650887966156,0.8523504137992859,-15.705767691600933,-38.127658666529136,136.27924788667204,7.416601181030273,-0.18251322209835052,6.151897430419922,1.0893861055374146,-33.29869079589844,2.456824779510498
2026-04-02 13:03:45.031,1964.037755111,702817589,right_foot,右脚,D4:22:CD:00:85:22,0.3861216604709625,0.256283164024353,-0.2452690154314041,0.8515117168426514,-16.367732453470797,-38.74559682047812,137.0055437747887,7.409629821777344,-1.2228952646255493,5.712738990783691,-6.250117301940918,-23.321290969848633,11.028863906860352
2026-04-02 13:03:45.053,1964.059306302,702850923,right_foot,右脚,D4:22:CD:00:85:22,0.38374003767967224,0.2589692771434784,-0.2464413046836853,0.8514371514320374,-16.528478173592298,-39.059780139630796,137.37665155033025,7.533748626708984,-2.0412161350250244,5.356806755065918,2.2524991035461426,-12.299010276794434,5.3687663078308105
2026-04-02 13:03:45.083,1964.089484079,702884257,right_foot,右脚,D4:22:CD:00:85:22,0.3818909227848053,0.2609153985977173,-0.24560779333114624,0.8519151210784912,-16.4323383518885,-39.20864836497866,137.59709960131644,7.3159379959106445,-1.1982660293579102,5.89740514755249,7.154287815093994,-6.547326564788818,3.367597818374634
2026-04-02 13:03:45.113,1964.119400173,702917591,right_foot,右脚,D4:22:CD:00:85:22,0.3790641725063324,0.26508644223213196,-0.24670393764972687,0.8515732288360596,-16.54832094100835,-39.68110970278245,138.016402697757,7.176438808441162,-1.2399080991744995,6.014448165893555,4.604580402374268,-17.167600631713867,5.00711727142334
2026-04-02 13:03:45.143,1964.149225323,702950925,right_foot,右脚,D4:22:CD:00:85:22,0.37685924768447876,0.27128103375434875,-0.24798479676246643,0.8502278327941895,-16.574668881712878,-40.40693122147295,138.32629754688267,7.390398025512695,-1.7667417526245117,5.364973068237305,5.287570953369141,-23.723173141479492,0.32781004905700684
2026-04-02 13:03:45.173,1964.179427832,702984259,right_foot,右脚,D4:22:CD:00:85:22,0.37565770745277405,0.27879735827445984,-0.24814704060554504,0.8482785820960999,-16.34254405916142,-41.25658572514451,138.41596194032292,7.505884170532227,-1.7066115140914917,5.347184181213379,8.827253341674805,-25.848739624023438,-5.565604209899902
2026-04-02 13:03:45.203,1964.209339828,703017593,right_foot,右脚,D4:22:CD:00:85:22,0.3748520612716675,0.2864135801792145,-0.247256338596344,0.8463557362556458,-15.93829196939758,-42.081290000231924,138.3877720805603,7.504047393798828,-1.3818048238754272,5.453163146972656,11.671487808227539,-24.42374038696289,-7.784489631652832
2026-04-02 13:03:45.233,1964.239386604,703050927,right_foot,右脚,D4:22:CD:00:85:22,0.3742474913597107,0.29446327686309814,-0.24675609171390533,0.8440034985542297,-15.549941597142658,-42.9806695430985,138.3273384835919,7.672879695892334,-0.986228883266449,5.407680988311768,10.529335021972656,-26.445056915283203,-8.907156944274902
2026-04-02 13:03:45.293,1964.29935454,703084261,right_foot,右脚,D4:22:CD:00:85:22,0.3735699951648712,0.30237486958503723,-0.24667033553123474,0.8415275812149048,-15.222617264012927,-43.88481506451214,138.28824753269407,7.686670780181885,-1.0766174793243408,5.368719577789307,9.11412525177002,-26.76503562927246,-8.314887046813965
2026-04-02 13:03:45.323,1964.329416941,703117595,right_foot,右脚,D4:22:CD:00:85:22,0.37298303842544556,0.3105568587779999,-0.24736443161964417,0.8385993242263794,-14.97981186120235,-44.86114830623706,138.25691962094817,7.698248386383057,-1.0022610425949097,5.562984943389893,6.725522518157959,-28.941957473754883,-8.574441909790039
2026-04-02 13:03:45.353,1964.359357977,703150929,right_foot,右脚,D4:22:CD:00:85:22,0.3724644184112549,0.32166004180908203,-0.2505235970020294,0.8336924314498901,-14.93889035547955,-46.29885067297243,138.2701104222578,7.747607707977295,-0.9545108079910278,6.010161399841309,1.6070518493652344,-42.58444595336914,-11.160757064819336
2026-04-02 13:03:45.383,1964.389134505,703184263,right_foot,右脚,D4:22:CD:00:85:22,0.37153172492980957,0.3370264172554016,-0.2561221420764923,0.8263043165206909,-15.076090038050019,-48.35597888379798,138.3795489875041,7.867286682128906,-1.0195597410202026,6.241994380950928,-1.606677532196045,-61.03766632080078,-14.124135971069336
2026-04-02 13:03:45.413,1964.419477652,703217597,right_foot,右脚,D4:22:CD:00:85:22,0.3688638508319855,0.35598474740982056,-0.26530784368515015,0.816594123840332,-15.735293448748982,-50.997193297916986,138.9231449520555,8.52431583404541,-0.44859635829925537,6.592667579650879,-7.248695373535156,-80.0551986694336,-11.16278076171875
2026-04-02 13:03:45.443,1964.449413432,703250931,right_foot,右脚,D4:22:CD:00:85:22,0.3635852038860321,0.37833407521247864,-0.2788456082344055,0.8043098449707031,-17.260504117286242,-54.2293988825293,140.23749123144245,8.683086395263672,-0.24251143634319305,6.706944465637207,-14.329817771911621,-100.64295959472656,-4.852694988250732
2026-04-02 13:03:45.473,1964.479340523,703284265,right_foot,右脚,D4:22:CD:00:85:22,0.3546259105205536,0.40784725546836853,-0.2956266403198242,0.7877220511436462,-19.71290662957428,-58.45332472211037,142.63066935426642,8.7627592086792,-0.8001523017883301,7.4130706787109375,-18.022180557250977,-132.7667694091797,-5.421917915344238
2026-04-02 13:03:45.503,1964.509431881,703317599,right_foot,右脚,D4:22:CD:00:85:22,0.34374552965164185,0.44798901677131653,-0.3172380030155182,0.7619088888168335,-23.821744642449545,-64.25705013422605,146.52499540970683,9.112720489501953,-2.2298481464385986,8.263566970825195,-20.510602951049805,-183.32949829101562,-12.780202865600586
2026-04-02 13:03:45.533,1964.5393588,703350933,right_foot,右脚,D4:22:CD:00:85:22,0.327574759721756,0.5038824081420898,-0.3404707610607147,0.7231025099754333,-31.93321484610628,-72.13393059391929,154.80007176689375,10.187389373779297,-2.947019577026367,10.204297065734863,-12.162485122680664,-252.5027313232422,-29.01053810119629
2026-04-02 13:03:45.593,1964.599411004,703384267,right_foot,右脚,D4:22:CD:00:85:22,0.30900442600250244,0.5757888555526733,-0.3598015308380127,0.6659778356552124,-57.69606259846371,-81.60520657981371,-178.91706293318563,11.987357139587402,-6.625838279724121,10.879423141479492,-1.7054880857467651,-322.84173583984375,-69.30451965332031
2026-04-02 13:03:45.623,1964.629337591,703417601,right_foot,右脚,D4:22:CD:00:85:22,0.2939644157886505,0.6406844854354858,-0.3749697208404541,0.6020848155021667,-143.77001345900783,-82.72428348031201,-92.81367393074224,9.285626411437988,0.7251519560813904,7.626175880432129,-15.009825706481934,-311.497314453125,-84.24788665771484
2026-04-02 13:03:45.683,1964.6893572,703450935,right_foot,右脚,D4:22:CD:00:85:22,0.2869006395339966,0.6583787202835083,-0.4115672707557678,0.5611040592193604,-157.76638952514136,-77.1603666863884,-81.83810621174099,15.495771408081055,-7.1124796867370605,4.061130046844482,-95.13456726074219,-174.43914794921875,30.64716911315918
2026-04-02 13:03:45.683,1964.689477469,703484269,right_foot,右脚,D4:22:CD:00:85:22,0.26148128509521484,0.656926155090332,-0.38835158944129944,0.5909813046455383,-144.97228825017362,-78.39429084254968,-90.04312622410683,5.727491855621338,-7.419649124145508,6.151700973510742,143.21368408203125,55.93911361694336,27.442768096923828
2026-04-02 13:03:45.713,1964.719399637,703517603,right_foot,右脚,D4:22:CD:00:85:22,0.28340989351272583,0.6311315894126892,-0.37991929054260254,0.6140140295028687,-128.1034346677194,-82.05156760184272,-107.98789715327729,1.620179295539856,5.4753499031066895,7.145788669586182,-24.820499420166016,139.7969512939453,-9.010308265686035
2026-04-02 13:03:45.746,1964.752378638,703550937,right_foot,右脚,D4:22:CD:00:85:22,0.33075061440467834,0.5851489901542664,-0.37137454748153687,0.6405355334281921,-66.06458608891937,-84.43216663624636,-173.54731213629393,6.867615222930908,-3.4369702339172363,3.250579357147217,-94.8755874633789,223.39842224121094,-33.05323028564453
2026-04-02 13:03:45.773,1964.779561121,703584271,right_foot,右脚,D4:22:CD:00:85:22,0.36453375220298767,0.5264403223991394,-0.34469839930534363,0.6864101886749268,-23.249314377707048,-76.91017591941775,142.6141377469829,6.503222465515137,0.5730628371238708,4.619429111480713,-17.350154876708984,293.87567138671875,-1.4498236179351807
2026-04-02 13:03:45.803,1964.809591101,703617605,right_foot,右脚,D4:22:CD:00:85:22,0.3949289321899414,0.45712700486183167,-0.3286365270614624,0.7259918451309204,-17.598088192557817,-67.41592908613471,134.7002931520465,6.486264228820801,1.124853253364563,5.593870639801025,-57.061134338378906,290.2029724121094,30.53436851501465
2026-04-02 13:03:45.833,1964.839182045,703650939,right_foot,右脚,D4:22:CD:00:85:22,0.42278414964675903,0.3818877637386322,-0.31213271617889404,0.7602556943893433,-16.458177697786777,-57.628463350251316,130.93933709869106,10.247507095336914,-1.1414629220962524,5.723784923553467,-69.37908935546875,294.9187316894531,34.04056167602539
2026-04-02 13:03:45.893,1964.899519162,703684273,right_foot,右脚,D4:22:CD:00:85:22,0.4366758167743683,0.2982043921947479,-0.29200565814971924,0.796944797039032,-17.462762807454112,-46.913943647083485,130.18540796428564,12.654298782348633,-1.4385666847229004,6.948502540588379,-47.91715621948242,310.1394958496094,80.09811401367188
2026-04-02 13:03:45.923,1964.929540365,703717607,right_foot,右脚,D4:22:CD:00:85:22,0.4296215772628784,0.21080414950847626,-0.2665683329105377,0.8366171717643738,-19.007279511390472,-35.57525303639753,131.7856623815281,13.555715560913086,-1.461368203163147,8.867958068847656,-14.448906898498535,310.5290222167969,140.3989715576172
2026-04-02 13:03:45.954,1964.960313124,703750941,right_foot,右脚,D4:22:CD:00:85:22,0.41960152983665466,0.12172333151102066,-0.24575157463550568,0.8652886748313904,-20.824544443645088,-24.63820441806161,132.85606155005684,17.885766983032227,-1.7636951208114624,7.220160961151123,-38.22807693481445,298.01507568359375,137.63070678710938
2026-04-02 13:03:45.983,1964.989404091,703784275,right_foot,右脚,D4:22:CD:00:85:22,0.41973015666007996,0.046174291521310806,-0.2271893173456192,0.8775417804718018,-21.96571724108926,-15.768794577806984,131.95518635547492,23.67838478088379,-0.872635006904602,-1.669219732284546,-43.50114822387695,256.5171813964844,73.29844665527344
2026-04-02 13:03:46.013,1965.019513117,703817609,right_foot,右脚,D4:22:CD:00:85:22,0.4187541902065277,0.003678695997223258,-0.2401735782623291,0.8757557272911072,-25.27004725170729,-11.981195616060745,131.58431377137373,23.504791259765625,6.6546807289123535,-13.337504386901855,-101.76253509521484,108.67208099365234,35.8169059753418
2026-04-02 13:03:46.043,1965.049314114,703850943,right_foot,右脚,D4:22:CD:00:85:22,0.42744991183280945,0.03192538395524025,-0.23917590081691742,0.8712420463562012,-23.787753162088524,-15.076042530907644,130.92585350850288,18.578289031982422,0.1411588191986084,-12.400177955627441,39.85100555419922,-75.54882049560547,-55.48402786254883
2026-04-02 13:03:46.073,1965.079298404,703884277,right_foot,右脚,D4:22:CD:00:85:22,0.42923271656036377,0.08710236847400665,-0.219828799366951,0.8716926574707031,-19.152572181439854,-19.911501783911955,130.96007252944707,1.1195635795593262,-2.8454039096832275,13.694211959838867,139.4138641357422,-134.20208740234375,-51.74686813354492
2026-04-02 13:03:46.103,1965.109511479,703917611,right_foot,右脚,D4:22:CD:00:85:22,0.40975436568260193,0.15086281299591064,-0.22828242182731628,0.8701893091201782,-17.841362398211857,-26.720436099745537,133.84034463219913,9.061586380004883,5.2218499183654785,8.812957763671875,73.51870727539062,-218.06544494628906,10.758227348327637
2026-04-02 13:03:46.133,1965.139499736,703950945,right_foot,右脚,D4:22:CD:00:85:22,0.4067799746990204,0.19386816024780273,-0.2438489943742752,0.8587683439254761,-17.95121362667124,-32.09748135892489,134.51123673229432,17.95185089111328,-0.8656617403030396,6.916047096252441,6.439102649688721,-157.98873901367188,-32.49862289428711
2026-04-02 13:03:46.193,1965.199310562,703984279,right_foot,右脚,D4:22:CD:00:85:22,0.40688854455947876,0.22310996055603027,-0.2472241222858429,0.8506138920783997,-17.074156443493997,-35.50303864883249,134.3746030016395,10.490792274475098,-1.6312880516052246,5.523385524749756,23.962371826171875,-95.28363037109375,-33.59858703613281
2026-04-02 13:03:46.223,1965.229497855,704017613,right_foot,右脚,D4:22:CD:00:85:22,0.4062269628047943,0.24318048357963562,-0.2504720985889435,0.8444564938545227,-16.600243825792123,-37.89436809288698,134.35433177364752,8.2711820602417,-0.3972397744655609,5.870367050170898,13.766525268554688,-67.43448638916016,-20.857627868652344
2026-04-02 13:03:46.253,1965.259528778,704050947,right_foot,右脚,D4:22:CD:00:85:22,0.40368369221687317,0.26071029901504517,-0.25664186477661133,0.8385730385780334,-16.716311230282233,-40.12470684575324,134.73090355673378,7.497400283813477,0.09600430727005005,6.194230079650879,3.522756576538086,-65.64436340332031,-10.38989543914795
2026-04-02 13:03:46.283,1965.289515913,704084281,right_foot,右脚,D4:22:CD:00:85:22,0.399707168340683,0.27185139060020447,-0.2632397413253784,0.8348867297172546,-17.29752226251043,-41.63384700288113,135.45348378063733,8.059836387634277,-0.6941484212875366,5.540844917297363,-3.3730499744415283,-47.21639633178711,2.8222153186798096
2026-04-02 13:03:46.313,1965.319426154,704117615,right_foot,右脚,D4:22:CD:00:85:22,0.3974177837371826,0.2769685685634613,-0.26498058438301086,0.8337464332580566,-17.43069205704649,-42.25712860811222,135.80943114592714,8.151611328125,-1.6383044719696045,4.98061990737915,3.036360502243042,-19.39995765686035,2.3755300045013428
2026-04-02 13:03:46.343,1965.349513341,704150949,right_foot,右脚,D4:22:CD:00:85:22,0.3958463966846466,0.2788694202899933,-0.2641390264034271,0.8341271877288818,-17.32315085249302,-42.4030749015668,135.98891183630275,7.7708611488342285,-1.4077314138412476,5.364388942718506,6.767949104309082,-4.588833808898926,2.836036443710327
2026-04-02 13:03:46.373,1965.379517602,704184283,right_foot,右脚,D4:22:CD:00:85:22,0.39358028769493103,0.2793704867362976,-0.2629484534263611,0.8354071378707886,-17.27425278068015,-42.35782706495566,136.2838278615085,7.816522121429443,-0.9578531980514526,5.322445869445801,7.351787090301514,0.09354732185602188,6.969824314117432
2026-04-02 13:03:46.403,1965.409420941,704217617,right_foot,右脚,D4:22:CD:00:85:22,0.3913271129131317,0.2796100080013275,-0.2624170780181885,0.8365518450737,-17.32560399202639,-42.31437945143811,136.609965619602,7.560186386108398,-1.3451869487762451,5.286291122436523,4.96953821182251,-0.20073333382606506,7.609915256500244
2026-04-02 13:03:46.433,1965.439504926,704250951,right_foot,右脚,D4:22:CD:00:85:22,0.38987967371940613,0.28091657161712646,-0.2621188461780548,0.8368831276893616,-17.312622507827,-42.421414413971256,136.80367245757563,7.426572799682617,-1.4296315908432007,5.479081630706787,4.246680736541748,-3.792909860610962,3.3954107761383057
2026-04-02 13:03:46.493,1965.499526133,704284285,right_foot,右脚,D4:22:CD:00:85:22,0.3887195885181427,0.28336045145988464,-0.2618688642978668,0.8366772532463074,-17.238493440953427,-42.668028220543505,136.93705631298857,7.525730609893799,-1.245715618133545,5.262562274932861,4.895408630371094,-7.6130051612854,0.7800067663192749
2026-04-02 13:03:46.523,1965.529299475,704317619,right_foot,右脚,D4:22:CD:00:85:22,0.3879531919956207,0.286160945892334,-0.261369913816452,0.8362355828285217,-17.09071615307323,-42.952714517148536,136.99067473125206,7.482341289520264,-1.3438746929168701,5.154996871948242,5.513637542724609,-8.37382698059082,-1.3097456693649292
2026-04-02 13:03:46.583,1965.589336181,704350953,right_foot,右脚,D4:22:CD:00:85:22,0.3873612880706787,0.29240888357162476,-0.26073068380355835,0.8345465064048767,-16.755206465161162,-43.634186774123066,136.95032509128777,7.273800849914551,-1.818022608757019,5.647024631500244,9.242494583129883,-19.325136184692383,-6.778558254241943
2026-04-02 13:03:46.583,1965.589457957,704384287,right_foot,右脚,D4:22:CD:00:85:22,0.3868623971939087,0.301775723695755,-0.2609727382659912,0.831361711025238,-16.38559414698348,-44.72385041445525,136.87082740622716,7.668518543243408,-1.2437955141067505,5.587775707244873,9.446332931518555,-30.99296760559082,-10.998761177062988
2026-04-02 13:03:46.613,1965.619516809,704417621,right_foot,右脚,D4:22:CD:00:85:22,0.3871750235557556,0.31596839427948,-0.2610114514827728,0.8259131908416748,-15.685018215949315,-46.388969676677426,136.52239438974019,7.404206275939941,-2.061957359313965,5.791884899139404,13.58388614654541,-46.22035598754883,-20.906442642211914
2026-04-02 13:03:46.643,1965.649282098,704450955,right_foot,右脚,D4:22:CD:00:85:22,0.38756537437438965,0.3356063961982727,-0.26385143399238586,0.8170335292816162,-15.061388515782347,-48.84419479320118,136.11528597419223,7.871709823608398,-0.6836349964141846,6.879213809967041,9.72523307800293,-69.1505126953125,-27.573883056640625
2026-04-02 13:03:46.673,1965.679530695,704484289,right_foot,右脚,D4:22:CD:00:85:22,0.3865225911140442,0.3565484881401062,-0.2707233726978302,0.8063388466835022,-15.037102288237222,-51.65406013008661,136.0881758222225,8.62385082244873,0.18558360636234283,7.123948097229004,0.122181735932827,-81.66194152832031,-22.490806579589844
2026-04-02 13:03:46.703,1965.70950843,704517623,right_foot,右脚,D4:22:CD:00:85:22,0.382651686668396,0.3802865445613861,-0.28272464871406555,0.79311203956604,-15.94834391194569,-55.04374386225464,136.8374856146373,8.736274719238281,-0.2824644148349762,7.788628578186035,-9.295540809631348,-102.03543853759766,-14.307113647460938
2026-04-02 13:03:46.733,1965.739511897,704550957,right_foot,右脚,D4:22:CD:00:85:22,0.3751165270805359,0.41478055715560913,-0.3005460500717163,0.7726041078567505,-17.86940265094113,-60.04313680838148,138.58668287345884,8.65237045288086,-1.0301681756973267,8.879583358764648,-13.310809135437012,-152.23199462890625,-16.739307403564453
2026-04-02 13:03:46.793,1965.799511936,704584291,right_foot,右脚,D4:22:CD:00:85:22,0.3651635944843292,0.47013047337532043,-0.3244114816188812,0.7351124882698059,-21.03273298726863,-68.14421605149694,141.48100512307985,9.312019348144531,-3.39502215385437,11.136974334716797,-16.56978416442871,-242.44825744628906,-45.20850372314453
2026-04-02 13:03:46.853,1965.859390187,704617625,right_foot,右脚,D4:22:CD:00:85:22,0.3541184663772583,0.5425997972488403,-0.34811317920684814,0.6774975657463074,-27.3737697671417,-79.04192211382339,147.52828700340442,13.688846588134766,-5.5721435546875,11.717447280883789,-15.326292037963867,-319.7576599121094,-87.25106048583984
2026-04-02 13:03:46.853,1965.859511766,704650959,right_foot,右脚,D4:22:CD:00:85:22,0.34570008516311646,0.6076825857162476,-0.36399465799331665,0.6154035925865173,-97.2428167760643,-88.3909551392948,-143.00601289434323,12.527626991271973,-2.827453136444092,9.15897274017334,-16.338348388671875,-298.4020080566406,-104.74052429199219
2026-04-02 13:03:46.883,1965.889461376,704684293,right_foot,右脚,D4:22:CD:00:85:22,0.34428420662879944,0.6418395042419434,-0.3809563219547272,0.5695462822914124,175.98887593610715,-83.4280159193857,-57.80566608051712,9.568735122680664,-6.833017826080322,6.124234676361084,-49.691165924072266,-191.45545959472656,-59.25282669067383
2026-04-02 13:03:46.913,1965.91951168,704717627,right_foot,右脚,D4:22:CD:00:85:22,0.3367694318294525,0.6500512957572937,-0.3693477213382721,0.5723653435707092,172.73870754883356,-83.17008345539958,-52.763633464779396,6.535107135772705,-6.5833964347839355,8.60311508178711,52.76105880737305,-7.493865013122559,-18.99477767944336
2026-04-02 13:03:46.943,1965.949465676,704750961,right_foot,右脚,D4:22:CD:00:85:22,0.34997302293777466,0.6228781938552856,-0.362988144159317,0.5981483459472656,177.47668574739131,-87.73546047612,-58.03826108579157,2.35866379737854,-1.5364428758621216,8.015339851379395,-15.665252685546875,133.4842987060547,23.419946670532227
2026-04-02 13:03:46.973,1965.979574681,704784295,right_foot,右脚,D4:22:CD:00:85:22,0.37698665261268616,0.5777469277381897,-0.34516671299934387,0.6363565921783447,-2.246238266917568,-84.59417972172085,120.75755457141084,3.5329666137695312,-2.706371545791626,5.425715446472168,-27.73798942565918,228.0599822998047,7.80921745300293
2026-04-02 13:03:47.003,1966.009319081,704817629,right_foot,右脚,D4:22:CD:00:85:22,0.40762758255004883,0.5175705552101135,-0.3243098855018616,0.6788105368614197,-4.131198539873544,-75.25312758827806,121.21520019094999,5.154435634613037,-0.29665297269821167,5.586071968078613,-42.72272872924805,277.7646179199219,17.20296287536621
2026-04-02 13:03:47.033,1966.039415827,704850963,right_foot,右脚,D4:22:CD:00:85:22,0.43006080389022827,0.44725140929222107,-0.3090372085571289,0.7207704186439514,-8.45682141183086,-65.58017270074421,123.80739971347079,7.765045166015625,-1.1319587230682373,5.892251014709473,-55.894920349121094,283.6231994628906,57.00112533569336
2026-04-02 13:03:47.093,1966.099345066,704884297,right_foot,右脚,D4:22:CD:00:85:22,0.44125640392303467,0.3702254295349121,-0.29673975706100464,0.7616901993751526,-12.841313215440687,-55.676832362268705,126.63352375984907,10.53385066986084,-1.9601070880889893,6.531045913696289,-57.00095748901367,282.3888854980469,95.08478546142578
2026-04-02 13:03:47.123,1966.12936662,704917631,right_foot,右脚,D4:22:CD:00:85:22,0.436217337846756,0.2883794605731964,-0.2830085754394531,0.8040261268615723,-16.812677987937022,-45.28665571675215,130.0918828044776,12.721708297729492,-2.7706053256988525,7.693676471710205,-38.43149948120117,282.6133728027344,142.95376586914062
2026-04-02 13:03:47.153,1966.15951216,704950965,right_foot,右脚,D4:22:CD:00:85:22,0.41629546880722046,0.20447316765785217,-0.2680494785308838,0.8444160223007202,-20.079536686802697,-34.64543652540528,133.834874074612,14.209643363952637,-1.7304431200027466,9.822526931762695,-25.279029846191406,273.97015380859375,182.1121826171875
2026-04-02 13:03:47.183,1966.189535746,704984299,right_foot,右脚,D4:22:CD:00:85:22,0.39473238587379456,0.11961125582456589,-0.26122304797172546,0.8727210164070129,-23.41285569844663,-24.51937461685819,136.4815358564555,18.999691009521484,-1.4316706657409668,7.44396448135376,-60.37881088256836,255.37408447265625,176.3272705078125
2026-04-02 13:03:47.216,1966.222267767,705017633,right_foot,右脚,D4:22:CD:00:85:22,0.38596442341804504,0.04639323428273201,-0.2543163597583771,0.885552167892456,-25.574551650360974,-16.169585036677127,136.5935566848619,23.643789291381836,-0.607280969619751,-2.3006277084350586,-63.48146438598633,226.2633514404297,106.62104034423828
2026-04-02 13:03:47.243,1966.249515675,705050967,right_foot,右脚,D4:22:CD:00:85:22,0.38017529249191284,0.0029215007089078426,-0.27603036165237427,0.8827601671218872,-29.784329989813084,-12.417745112593925,136.71449319223194,23.686756134033203,8.428619384765625,-12.968363761901855,-125.26162719726562,98.65727233886719,55.827884674072266
2026-04-02 13:03:47.273,1966.279542021,705084301,right_foot,右脚,D4:22:CD:00:85:22,0.38826245069503784,0.028935320675373077,-0.27381810545921326,0.8794535994529724,-28.422894670303474,-15.279096523134951,136.24991502199336,20.76173973083496,-3.2753796577453613,-15.542441368103027,37.60741424560547,-66.77338409423828,-52.53950500488281
2026-04-02 13:03:47.303,1966.309519535,705117635,right_foot,右脚,D4:22:CD:00:85:22,0.38844725489616394,0.09276316314935684,-0.2288796603679657,0.8877601027488708,-20.844774524131537,-20.03036861397913,136.45661963130658,0.5378534197807312,-1.0259004831314087,14.122224807739258,229.50868225097656,-129.84812927246094,-53.13389587402344
2026-04-02 13:03:47.333,1966.339783498,705150969,right_foot,右脚,D4:22:CD:00:85:22,0.3737272024154663,0.16396230459213257,-0.223944753408432,0.8850385546684265,-17.937838373617577,-27.23327227499606,138.5928765485405,9.038900375366211,10.48112964630127,9.767582893371582,112.86978912353516,-221.48602294921875,-15.711945533752441
2026-04-02 13:03:47.393,1966.399520352,705184303,right_foot,右脚,D4:22:CD:00:85:22,0.3761826455593109,0.21135656535625458,-0.23499371111392975,0.8709724545478821,-17.371130931077786,-33.02279002528554,138.46548793807506,20.148393630981445,-1.4929388761520386,6.299859046936035,14.722457885742188,-162.47012329101562,-54.981136322021484
2026-04-02 13:03:47.423,1966.429515326,705217637,right_foot,右脚,D4:22:CD:00:85:22,0.3761811852455139,0.23656240105628967,-0.23622949421405792,0.8641305565834045,-16.51935706833738,-35.91410497221887,138.3374144958898,10.099546432495117,0.8101786375045776,6.598565101623535,23.119592666625977,-79.57392883300781,-27.39394187927246
2026-04-02 13:03:47.454,1966.460417906,705250971,right_foot,右脚,D4:22:CD:00:85:22,0.3749527335166931,0.25385430455207825,-0.23918373882770538,0.8589293360710144,-16.247186874061313,-37.984697784707315,138.45927111717236,7.856298446655273,-0.4155706465244293,5.732792854309082,10.071066856384277,-58.16112518310547,-13.840852737426758
2026-04-02 13:03:47.483,1966.489577227,705284305,right_foot,右脚,D4:22:CD:00:85:22,0.373144268989563,0.26734232902526855,-0.2425607293844223,0.8546672463417053,-16.22084045562229,-39.64266091675913,138.7091075870443,7.552398681640625,-0.7241762280464172,5.754024505615234,5.2258381843566895,-47.474021911621094,-7.525681972503662
2026-04-02 13:03:47.513,1966.519518913,705317639,right_foot,右脚,D4:22:CD:00:85:22,0.3708024024963379,0.2738338112831116,-0.24568749964237213,0.8527358770370483,-16.49324398005275,-40.48272333137005,139.11586242085892,7.803712368011475,-0.8334038257598877,5.912153244018555,-0.545824408531189,-25.246910095214844,2.5272505283355713
2026-04-02 13:03:47.543,1966.549499795,705350973,right_foot,右脚,D4:22:CD:00:85:22,0.3690038323402405,0.2770846486091614,-0.24656903743743896,0.8522112965583801,-16.576648774074524,-40.861979607272204,139.38754281118312,7.822577953338623,-1.3021981716156006,5.44765043258667,2.629049301147461,-11.408795356750488,3.23612904548645
2026-04-02 13:03:47.573,1966.579341661,705384307,right_foot,右脚,D4:22:CD:00:85:22,0.3673960268497467,0.27922022342681885,-0.24693091213703156,0.8521041870117188,-16.62760100247249,-41.09368509135018,139.6222892798381,7.3441853523254395,-1.4053453207015991,5.759798049926758,2.9482007026672363,-7.172683238983154,3.555785655975342
2026-04-02 13:03:47.603,1966.609531851,705417641,right_foot,右脚,D4:22:CD:00:85:22,0.36577466130256653,0.2814837098121643,-0.24719299376010895,0.8519809246063232,-16.66201754773341,-41.33582933544547,139.85375592375718,7.511819839477539,-1.2291055917739868,5.5150957107543945,3.4318976402282715,-7.661144733428955,3.284944534301758
2026-04-02 13:03:47.633,1966.639506043,705450975,right_foot,右脚,D4:22:CD:00:85:22,0.3644862174987793,0.284317284822464,-0.24726201593875885,0.8515721559524536,-16.629353202634245,-41.64247944672437,140.01881243452854,7.352224349975586,-1.3351465463638306,5.50819206237793,4.17266321182251,-9.239178657531738,1.2149176597595215
2026-04-02 13:03:47.693,1966.699386203,705484309,right_foot,右脚,D4:22:CD:00:85:22,0.3630213439464569,0.2876169681549072,-0.2476630061864853,0.8509730100631714,-16.63447585990401,-42.01479182660541,140.22058136110934,7.379238605499268,-1.232559323310852,5.591136455535889,3.8097403049468994,-11.48352336883545,1.3732246160507202
2026-04-02 13:03:47.724,1966.730404887,705517643,right_foot,右脚,D4:22:CD:00:85:22,0.3618652820587158,0.292351096868515,-0.24801255762577057,0.8497496247291565,-16.557779493372912,-42.55864831991559,140.35365354187087,7.258906364440918,-1.517190933227539,5.547533988952637,4.927304744720459,-16.070772171020508,-1.621802568435669
2026-04-02 13:03:47.753,1966.759452951,705550977,right_foot,右脚,D4:22:CD:00:85:22,0.36096301674842834,0.3005048334598541,-0.24847950041294098,0.847148597240448,-16.34228162677464,-43.51371069906962,140.4026753005634,7.048776626586914,-2.021406412124634,5.607590675354004,7.424241542816162,-27.455909729003906,-6.912240505218506
2026-04-02 13:03:47.783,1966.789411653,705584311,right_foot,右脚,D4:22:CD:00:85:22,0.36042091250419617,0.3138469159603119,-0.24892306327819824,0.8423980474472046,-15.877442368990192,-45.08881386622271,140.29875787762714,7.732865810394287,-0.9204462766647339,5.7490315437316895,11.745484352111816,-44.52538299560547,-15.130720138549805
2026-04-02 13:03:47.813,1966.819342681,705617645,right_foot,右脚,D4:22:CD:00:85:22,0.35925766825675964,0.3282361924648285,-0.25100141763687134,0.8367757201194763,-15.628992403597628,-46.85858846820522,140.33590316886708,7.718118667602539,-1.1871132850646973,5.930800437927246,8.221345901489258,-51.1054801940918,-13.54581069946289
2026-04-02 13:03:47.843,1966.849546855,705650979,right_foot,右脚,D4:22:CD:00:85:22,0.35873812437057495,0.3468199372291565,-0.25540170073509216,0.8281262516975403,-15.478449322307206,-49.258856041940305,140.2866605185697,7.724617004394531,-1.2462059259414673,6.739609718322754,3.3875551223754883,-68.9659194946289,-20.15257453918457
2026-04-02 13:03:47.873,1966.879518593,705684313,right_foot,右脚,D4:22:CD:00:85:22,0.3587260842323303,0.3692433536052704,-0.26131775975227356,0.8165097236633301,-15.319220268998919,-52.22893586462606,140.1080551754726,8.276774406433105,-0.935343861579895,7.0474982261657715,0.5935286283493042,-84.95685577392578,-26.836050033569336
2026-04-02 13:03:47.906,1966.912315519,705717647,right_foot,右脚,D4:22:CD:00:85:22,0.35613906383514404,0.39542412757873535,-0.2725898027420044,0.8015610575675964,-16.086622134509312,-55.90123498432361,140.66429064555425,8.773320198059082,0.14785319566726685,7.90629243850708,-9.557297706604004,-108.7514419555664,-20.270158767700195
2026-04-02 13:03:47.933,1966.939508566,705750981,right_foot,右脚,D4:22:CD:00:85:22,0.34949344396591187,0.43331509828567505,-0.2890499532222748,0.7788086533546448,-17.85676761608724,-61.280281489751005,142.29649599762,8.41079330444336,-1.7452858686447144,9.111429214477539,-11.33297061920166,-161.9712371826172,-22.54521369934082
2026-04-02 13:03:48.024,1967.030200477,705784315,right_foot,右脚,D4:22:CD:00:85:22,0.33918988704681396,0.4906645119190216,-0.3087770342826843,0.7408479452133179,-20.8203487569971,-69.46912421672894,145.31766155201578,9.29218578338623,-3.4176790714263916,11.661591529846191,-6.348604202270508,-244.68472290039062,-45.56826400756836
2026-04-02 13:03:48.024,1967.030354649,705817649,right_foot,右脚,D4:22:CD:00:85:22,0.32690784335136414,0.5710006952285767,-0.32947733998298645,0.6771515607833862,-29.125867253970785,-81.38813455036725,153.647403934876,12.592724800109863,-6.537106990814209,13.598069190979004,-5.974342346191406,-350.71044921875,-93.56098175048828
2026-04-02 13:03:48.083,1967.089371277,705850983,right_foot,右脚,D4:22:CD:00:85:22,0.3168133795261383,0.6478121876716614,-0.34180164337158203,0.6026114821434021,-178.84128856273406,-85.81411051732715,-56.71147476181753,13.336702346801758,-3.7032337188720703,10.698572158813477,-6.977207660675049,-352.4252014160156,-123.63944244384766
2026-04-02 13:03:48.083,1967.089533732,705884317,right_foot,右脚,D4:22:CD:00:85:22,0.3120628297328949,0.6806660294532776,-0.3628479838371277,0.5546639561653137,173.30233908076906,-78.97515453124416,-50.60147386971171,13.522801399230957,-5.507823944091797,5.597776412963867,-53.5910530090332,-205.18382263183594,-34.571598052978516
2026-04-02 13:03:48.113,1967.119522039,705917651,right_foot,右脚,D4:22:CD:00:85:22,0.2873125672340393,0.6813085079193115,-0.33981144428253174,0.5812045335769653,-178.74034983005072,-80.83115882542896,-54.089291203344224,4.907262325286865,-10.770094871520996,9.002147674560547,135.629638671875,52.69802474975586,20.130767822265625
2026-04-02 13:03:48.143,1967.149353588,705950985,right_foot,右脚,D4:22:CD:00:85:22,0.29711416363716125,0.6581587195396423,-0.321163535118103,0.6127026081085205,-178.06117309075822,-85.83211404476862,-53.82493712825535,-0.5264043211936951,4.241800785064697,9.857881546020508,28.216222763061523,147.4764862060547,-6.056828498840332
2026-04-02 13:03:48.173,1967.179608268,705984319,right_foot,右脚,D4:22:CD:00:85:22,0.33575618267059326,0.6079773902893066,-0.30857253074645996,0.6499342322349548,5.816546555854405,-85.94827780979323,119.93850011581786,5.548782825469971,-3.666351318359375,5.199413776397705,-71.04609680175781,242.9503173828125,-17.277742385864258
2026-04-02 13:03:48.203,1967.209534877,706017653,right_foot,右脚,D4:22:CD:00:85:22,0.36499279737472534,0.5407600998878479,-0.28066903352737427,0.703977108001709,-0.09387393223119156,-75.0718686492192,125.26112738604621,5.985747337341309,-0.9701908826828003,5.459729194641113,-18.828134536743164,324.0692443847656,9.080597877502441
2026-04-02 13:03:48.233,1967.239610272,706050987,right_foot,右脚,D4:22:CD:00:85:22,0.38612833619117737,0.4615633487701416,-0.26618480682373047,0.7530009150505066,-5.869152624975963,-64.24729781358576,129.39080893208643,7.285249710083008,-0.26420408487319946,6.408077716827393,-56.08851623535156,319.0457458496094,59.00661849975586
2026-04-02 13:03:48.293,1967.299737167,706084321,right_foot,右脚,D4:22:CD:00:85:22,0.3964499533176422,0.37215593457221985,-0.25885412096977234,0.7983245253562927,-11.349114980563122,-53.07739781578176,132.8637590853963,12.671841621398926,-3.4745919704437256,6.656712532043457,-74.404541015625,320.3234558105469,102.8599853515625
2026-04-02 13:03:48.323,1967.329605065,706117655,right_foot,右脚,D4:22:CD:00:85:22,0.3840445578098297,0.2756960690021515,-0.2452465444803238,0.8463781476020813,-15.615208087670549,-40.923987921146974,137.0453145315924,15.13475513458252,-4.044370174407959,8.52949333190918,-42.534820556640625,333.564453125,160.7248992919922
2026-04-02 13:03:48.353,1967.35960091,706150989,right_foot,右脚,D4:22:CD:00:85:22,0.36075058579444885,0.17412695288658142,-0.2427145540714264,0.8835321664810181,-20.26089541244054,-28.869223801831,140.8456072839552,18.163028717041016,-1.5555493831634521,8.875470161437988,-73.15493774414062,313.04437255859375,199.584716796875
2026-04-02 13:03:48.383,1967.389392286,706184323,right_foot,右脚,D4:22:CD:00:85:22,0.33650118112564087,0.08489751070737839,-0.24561896920204163,0.9051138162612915,-24.132510100089284,-18.601605136818446,143.2220136723574,25.8699893951416,-2.561291217803955,0.13837075233459473,-86.84361267089844,259.3361511230469,176.3310089111328
2026-04-02 13:03:48.413,1967.419614307,706217657,right_foot,右脚,D4:22:CD:00:85:22,0.3238573372364044,0.03479209169745445,-0.24854527413845062,0.9122123122215271,-26.244360438304305,-12.971240510706314,143.94389158228014,26.389501571655273,4.926141262054443,-12.823015213012695,-57.028804779052734,144.36866760253906,90.88225555419922
2026-04-02 13:03:48.443,1967.44952034,706250991,right_foot,右脚,D4:22:CD:00:85:22,0.3233344256877899,0.052226558327674866,-0.24754667282104492,0.9118377566337585,-25.59389126310649,-14.79284161363927,144.32918212835438,24.361574172973633,1.740006446838379,-19.67377281188965,22.711429595947266,-51.96540069580078,-12.841423034667969
2026-04-02 13:03:48.474,1967.480343494,706284325,right_foot,右脚,D4:22:CD:00:85:22,0.3201265037059784,0.11874701827764511,-0.20439742505550385,0.917409360408783,-18.604502641005464,-20.410590776230467,144.90553797417337,5.365338325500488,1.6018825769424438,11.249441146850586,215.45266723632812,-159.0436553955078,-47.03513717651367
2026-04-02 13:03:48.503,1967.509594373,706317659,right_foot,右脚,D4:22:CD:00:85:22,0.30551573634147644,0.1929762363433838,-0.19940337538719177,0.9108562469482422,-16.172272125117264,-28.2544915887984,147.01131530014314,7.0515899658203125,9.580699920654297,11.116003036499023,99.18104553222656,-238.61375427246094,-14.549712181091309
2026-04-02 13:03:48.533,1967.539592928,706350993,right_foot,右脚,D4:22:CD:00:85:22,0.3057847023010254,0.241742342710495,-0.20942997932434082,0.8967695832252502,-15.980126749276424,-34.170342577812455,147.2834454677262,22.198171615600586,-2.86557936668396,4.76739501953125,9.765371322631836,-169.01644897460938,-41.35889434814453
2026-04-02 13:03:48.594,1967.600382928,706384327,right_foot,右脚,D4:22:CD:00:85:22,0.3085452616214752,0.2675327658653259,-0.20868483185768127,0.8886377215385437,-14.96829375499041,-37.1753702590902,146.76416103275042,9.71493148803711,1.0601191520690918,6.246110916137695,21.153600692749023,-79.34062194824219,-35.08491516113281
2026-04-02 13:03:48.623,1967.629601525,706417661,right_foot,右脚,D4:22:CD:00:85:22,0.30879199504852295,0.2847294509410858,-0.20925892889499664,0.8830559253692627,-14.478144632049318,-39.20513512463531,146.63224779688008,8.073986053466797,0.5459389090538025,5.933111190795898,12.025588035583496,-53.92864990234375,-17.266260147094727
2026-04-02 13:03:48.653,1967.659601016,706450995,right_foot,右脚,D4:22:CD:00:85:22,0.30686649680137634,0.295443058013916,-0.21242490410804749,0.8794443607330322,-14.659024370060342,-40.54336568871883,146.96888817753506,7.646448135375977,-0.18618449568748474,6.077837944030762,0.7346983551979065,-36.717857360839844,-1.3213716745376587
2026-04-02 13:03:48.683,1967.68960721,706484329,right_foot,右脚,D4:22:CD:00:85:22,0.30444473028182983,0.3016324043273926,-0.21502859890460968,0.8775501847267151,-14.950061369196673,-41.32455524171684,147.39954671316403,7.632748603820801,-1.4450163841247559,5.784996032714844,-0.5846650004386902,-21.16392707824707,4.738058090209961
2026-04-02 13:03:48.713,1967.719374926,706517663,right_foot,右脚,D4:22:CD:00:85:22,0.3026009500026703,0.3056410551071167,-0.2145291119813919,0.8769228458404541,-14.855524860220319,-41.74991322363993,147.61642462122265,7.601837635040283,-2.0119829177856445,5.475369453430176,6.871143341064453,-9.668814659118652,2.6798462867736816
2026-04-02 13:03:48.743,1967.749525728,706550997,right_foot,右脚,D4:22:CD:00:85:22,0.3008275628089905,0.309634268283844,-0.21353882551193237,0.876373827457428,-14.690317195814925,-42.158753439722396,147.79799479583224,7.500943660736084,-0.8791950345039368,5.660284042358398,8.35134220123291,-9.030935287475586,1.99799644947052
2026-04-02 13:03:48.773,1967.779684643,706584331,right_foot,右脚,D4:22:CD:00:85:22,0.2989320456981659,0.31426554918289185,-0.21370600163936615,0.8753324747085571,-14.675645287692305,-42.682919624985566,148.0499544785867,7.370071887969971,-1.3157318830490112,5.473219871520996,5.284602165222168,-12.818704605102539,2.6154956817626953
2026-04-02 13:03:48.803,1967.809609289,706617665,right_foot,右脚,D4:22:CD:00:85:22,0.2973995804786682,0.320159375667572,-0.21376001834869385,0.8737038373947144,-14.586182305297516,-43.3610198151605,148.22923304463242,7.323831558227539,-1.256577730178833,5.525111198425293,6.112488269805908,-16.914453506469727,-0.14914342761039734
2026-04-02 13:03:48.833,1967.839380725,706650999,right_foot,右脚,D4:22:CD:00:85:22,0.2961685359477997,0.32771241664886475,-0.21334941685199738,0.8714189529418945,-14.360022027336726,-44.228710567300475,148.31817499336051,7.40910005569458,-1.5849689245224,5.368098735809326,8.398712158203125,-21.963220596313477,-3.4759085178375244
2026-04-02 13:03:48.893,1967.899605669,706684333,right_foot,右脚,D4:22:CD:00:85:22,0.2950991988182068,0.33659568428993225,-0.21263253688812256,0.8685664534568787,-14.033657688522602,-45.25171816977899,148.34252189674538,7.513787269592285,-0.9203847646713257,5.548064708709717,10.08533763885498,-26.194726943969727,-5.891078948974609
2026-04-02 13:03:48.923,1967.929623678,706717667,right_foot,右脚,D4:22:CD:00:85:22,0.2935114800930023,0.3471376299858093,-0.21310842037200928,0.8648304343223572,-13.857524017715145,-46.5129237079027,148.48628055552786,7.492260932922363,-0.8898684978485107,5.623281478881836,8.151137351989746,-33.91803741455078,-5.107761383056641
2026-04-02 13:03:48.953,1967.959462551,706751001,right_foot,右脚,D4:22:CD:00:85:22,0.2917856276035309,0.3611508905887604,-0.2151098996400833,0.8591618537902832,-13.804347449682279,-48.25418053319116,148.69014350666836,7.608780860900879,-1.1932754516601562,5.730173587799072,5.871826648712158,-48.47611999511719,-7.439669132232666
2026-04-02 13:03:48.983,1967.989636339,706784335,right_foot,右脚,D4:22:CD:00:85:22,0.291294664144516,0.378834068775177,-0.21708399057388306,0.851179838180542,-13.527057336604662,-50.47818488925749,148.6153351529382,7.842023849487305,-1.4404420852661133,6.024289131164551,6.418398380279541,-61.606197357177734,-16.26738739013672
2026-04-02 13:03:49.013,1968.019657029,706817669,right_foot,右脚,D4:22:CD:00:85:22,0.2914826273918152,0.3988024890422821,-0.22246800363063812,0.8405372500419617,-13.643800081816456,-53.14036604879797,148.59651056083075,8.251601219177246,-0.6150470972061157,7.397941589355469,-4.139438629150391,-75.08255004882812,-18.271190643310547
2026-04-02 13:03:49.043,1968.049449944,706851003,right_foot,右脚,D4:22:CD:00:85:22,0.2902517318725586,0.42335185408592224,-0.23192037642002106,0.8262810707092285,-14.44073653465939,-56.53736164764158,149.0845001904631,8.80162525177002,-0.04791036248207092,7.763946056365967,-12.143257141113281,-98.90339660644531,-15.759321212768555
2026-04-02 13:03:49.073,1968.079391733,706884337,right_foot,右脚,D4:22:CD:00:85:22,0.28674784302711487,0.4575742185115814,-0.2448548525571823,0.8052628040313721,-15.958653453907464,-61.32524811792486,150.30045248846787,8.56907844543457,-1.6312675476074219,8.907320976257324,-14.470849990844727,-141.99905395507812,-18.730514526367188
2026-04-02 13:03:49.103,1968.109500955,706917671,right_foot,右脚,D4:22:CD:00:85:22,0.282201886177063,0.5097568035125732,-0.2609098255634308,0.7696988582611084,-18.31788041656342,-68.74508709016287,152.31674171559195,8.958377838134766,-3.0615415573120117,10.94470500946045,-15.971458435058594,-219.21298217773438,-40.54021453857422
2026-04-02 13:03:49.133,1968.139502658,706951005,right_foot,右脚,D4:22:CD:00:85:22,0.27285048365592957,0.5821874737739563,-0.27560293674468994,0.7146003246307373,-24.115901147834602,-79.25272422162574,158.26575948073258,11.62276554107666,-4.364475727081299,13.316163063049316,-1.761575698852539,-310.9573974609375,-67.59395599365234
2026-04-02 13:03:49.193,1968.199368545,706984339,right_foot,右脚,D4:22:CD:00:85:22,0.26622095704078674,0.6658056378364563,-0.279747873544693,0.6384125351905823,-176.4345489143859,-87.524312284494,-48.9955495191158,13.334090232849121,-7.584490776062012,11.947563171386719,9.290799140930176,-369.30108642578125,-126.29566192626953
2026-04-02 13:03:49.223,1968.229514449,707017673,right_foot,右脚,D4:22:CD:00:85:22,0.2664352357387543,0.7157764434814453,-0.29385823011398315,0.574738085269928,167.53440344153418,-78.33773800832324,-34.471792948517695,9.679126739501953,-0.40871575474739075,6.490283966064453,-47.066219329833984,-269.4983825683594,-74.81535339355469
2026-04-02 13:03:49.253,1968.259490761,707051007,right_foot,右脚,D4:22:CD:00:85:22,0.2556234896183014,0.7165741324424744,-0.29786625504493713,0.5765884518623352,173.6204413138146,-78.13076532387376,-39.96350101032329,13.39797592163086,-14.134892463684082,6.266310691833496,21.196388244628906,-13.068694114685059,31.664051055908203
2026-04-02 13:03:49.284,1968.290633031,707084341,right_foot,右脚,D4:22:CD:00:85:22,0.24660959839820862,0.6998807191848755,-0.2681158185005188,0.614381730556488,172.73154720481494,-82.85170824945264,-35.506723380245894,-0.8248361349105835,3.2013845443725586,9.587392807006836,105.0992431640625,141.30014038085938,-6.098415374755859
2026-04-02 13:03:49.313,1968.319516711,707117675,right_foot,右脚,D4:22:CD:00:85:22,0.28233784437179565,0.6563452482223511,-0.26784849166870117,0.6463385820388794,101.7331295847068,-88.5731379090417,32.473503491121676,1.583591103553772,-1.6621673107147217,5.688773155212402,-92.93323516845703,199.9391326904297,-9.557546615600586
2026-04-02 13:03:49.343,1968.349495829,707151009,right_foot,右脚,D4:22:CD:00:85:22,0.31206339597702026,0.5995298624038696,-0.24894611537456512,0.6936905980110168,10.382918708167763,-80.80491277953186,122.71390017566189,5.647900581359863,-2.4505295753479004,4.665342330932617,-36.54829406738281,276.8736572265625,-11.2536039352417
2026-04-02 13:03:49.373,1968.379509291,707184343,right_foot,右脚,D4:22:CD:00:85:22,0.3289124667644501,0.5305111408233643,-0.23488618433475494,0.7451196312904358,-0.18465814014551352,-70.92687088006717,132.49606660432812,7.163517951965332,-1.0699000358581543,5.854109764099121,-31.03583335876465,298.2359619140625,44.296329498291016
2026-04-02 13:03:49.403,1968.409281463,707217677,right_foot,右脚,D4:22:CD:00:85:22,0.3390060067176819,0.4501746892929077,-0.2299194484949112,0.7934451103210449,-6.953397043176727,-60.48951806087412,137.7875394900061,10.859142303466797,-2.4726057052612305,6.269003868103027,-57.29325485229492,305.92034912109375,83.89982604980469
2026-04-02 13:03:49.433,1968.439519997,707251011,right_foot,右脚,D4:22:CD:00:85:22,0.33742737770080566,0.36116859316825867,-0.2245175987482071,0.8398168087005615,-11.802015911971028,-49.3011449728858,141.65192267817966,13.713052749633789,-3.3350989818573,7.347546577453613,-49.627601623535156,318.10333251953125,119.69682312011719
2026-04-02 13:03:49.493,1968.499516437,707284345,right_foot,右脚,D4:22:CD:00:85:22,0.32051846385002136,0.26633673906326294,-0.22401148080825806,0.8809950351715088,-16.46615777657393,-37.79817373175784,145.6876136346678,15.170927047729492,-1.333925485610962,9.462450981140137,-55.49693298339844,311.30438232421875,168.6855010986328
2026-04-02 13:03:49.523,1968.529334517,707317679,right_foot,右脚,D4:22:CD:00:85:22,0.30129221081733704,0.17190349102020264,-0.23530660569667816,0.9079114198684692,-21.301367877221765,-26.996644098015725,148.4525037879893,22.843181610107422,-1.1270889043807983,5.384295463562012,-99.84773254394531,282.68023681640625,170.70159912109375
2026-04-02 13:03:49.553,1968.559509819,707351013,right_foot,右脚,D4:22:CD:00:85:22,0.2927072048187256,0.09614869207143784,-0.2397613525390625,0.9206479787826538,-23.965571600498087,-18.505631142181795,148.68593362153402,26.209962844848633,2.673126459121704,-4.871615886688232,-76.81948852539062,232.70399475097656,103.962890625
2026-04-02 13:03:49.583,1968.589552737,707384347,right_foot,右脚,D4:22:CD:00:85:22,0.2904287874698639,0.06851530820131302,-0.2567315995693207,0.9192638993263245,-26.715142038545714,-15.967476982241543,148.748387500838,25.104167938232422,8.101590156555176,-15.732487678527832,-81.75492858886719,69.61921691894531,34.93403244018555
2026-04-02 13:03:49.613,1968.619514419,707417681,right_foot,右脚,D4:22:CD:00:85:22,0.29757359623908997,0.12266454845666885,-0.21792609989643097,0.9213641285896301,-20.583529482873484,-20.838524331126273,148.02688627047397,15.4166259765625,3.186903953552246,-6.4440765380859375,177.239501953125,-122.57247161865234,-76.18622589111328
2026-04-02 13:03:49.643,1968.649434592,707451015,right_foot,右脚,D4:22:CD:00:85:22,0.28775686025619507,0.1814461350440979,-0.1945045441389084,0.9200226664543152,-16.4494178985914,-26.475107022729738,149.15846194855024,0.15716132521629333,4.790816307067871,12.689535140991211,137.58837890625,-166.7849578857422,-23.078548431396484
2026-04-02 13:03:49.673,1968.679503334,707484349,right_foot,右脚,D4:22:CD:00:85:22,0.2798626124858856,0.24611634016036987,-0.20214629173278809,0.9056715369224548,-15.988448742206536,-33.983026935653676,150.57104106320574,15.996341705322266,4.219557762145996,10.453536987304688,34.75541687011719,-223.46388244628906,-26.61660385131836
2026-04-02 13:03:49.703,1968.709515635,707517683,right_foot,右脚,D4:22:CD:00:85:22,0.27697324752807617,0.28488850593566895,-0.20066232979297638,0.8954659104347229,-14.906956788142233,-38.41639131014022,150.8450908529251,17.807430267333984,-4.4559855461120605,3.1019532680511475,28.071191787719727,-123.11749267578125,-39.26103973388672
2026-04-02 13:03:49.733,1968.739515711,707551017,right_foot,右脚,D4:22:CD:00:85:22,0.2692864239215851,0.30925530195236206,-0.19838972389698029,0.8902179002761841,-14.343291100285672,-41.10615994143347,151.7415422928305,8.431386947631836,1.1567155122756958,6.558289051055908,14.526323318481445,-73.51292419433594,-21.314939498901367
2026-04-02 13:03:49.793,1968.799427335,707584351,right_foot,右脚,D4:22:CD:00:85:22,0.262583464384079,0.3242093324661255,-0.20071366429328918,0.8863704800605774,-14.661660033041898,-42.85513826872431,152.7772832208223,7.711033821105957,0.423352986574173,5.936328411102295,-1.1119111776351929,-49.46857452392578,-2.2422258853912354
2026-04-02 13:03:49.823,1968.829522114,707617685,right_foot,右脚,D4:22:CD:00:85:22,0.25962528586387634,0.3339062035083771,-0.2046380341053009,0.8827371597290039,-15.165175485734292,-44.08789513753887,153.3921069839048,7.663260459899902,-1.4825314283370972,5.608987808227539,-5.100468635559082,-34.97566223144531,2.392252206802368
2026-04-02 13:03:49.853,1968.859430605,707651019,right_foot,右脚,D4:22:CD:00:85:22,0.2588760554790497,0.33923158049583435,-0.20516061782836914,0.8808033466339111,-15.159845803139346,-44.7338697009334,153.51151781605412,7.861064434051514,-2.0152108669281006,5.148401260375977,3.165174722671509,-16.163204193115234,-0.5169302225112915
2026-04-02 13:03:49.883,1968.889420629,707684353,right_foot,右脚,D4:22:CD:00:85:22,0.2586902976036072,0.3408139944076538,-0.20334802567958832,0.8806674480438232,-14.866511439515737,-44.86959722104443,153.42719865247938,7.701664924621582,-0.8691044449806213,5.541154861450195,7.722667217254639,-0.388660192489624,-0.6026992797851562
2026-04-02 13:03:49.913,1968.919514217,707717687,right_foot,右脚,D4:22:CD:00:85:22,0.25739431381225586,0.34306082129478455,-0.2035488337278366,0.8801282048225403,-14.923028771183036,-45.12594405303846,153.62647612466606,7.327805995941162,-1.1639636754989624,5.846001148223877,4.101555347442627,-5.786228656768799,5.130622863769531
2026-04-02 13:03:49.943,1968.949590786,707751021,right_foot,右脚,D4:22:CD:00:85:22,0.2569045424461365,0.3469405174255371,-0.2037530541419983,0.8787021636962891,-14.890761362691947,-45.594425526767154,153.69331734180554,7.4280219078063965,-1.6418952941894531,5.302990436553955,4.49298620223999,-11.45310115814209,1.208649754524231
2026-04-02 13:03:49.974,1968.980302537,707784355,right_foot,右脚,D4:22:CD:00:85:22,0.2571340501308441,0.3517177402973175,-0.20316943526268005,0.8768689632415771,-14.671884429319697,-46.16225401228274,153.59385809505054,7.434151649475098,-1.3892847299575806,5.418099403381348,6.32962703704834,-13.46072769165039,-3.1659066677093506
2026-04-02 13:03:50.003,1969.009502317,707817689,right_foot,右脚,D4:22:CD:00:85:22,0.2579459249973297,0.3582988977432251,-0.20230631530284882,0.8741613626480103,-14.321757378646888,-46.952679186609366,153.36628474349368,7.315986633300781,-1.297181487083435,5.6729207038879395,8.273884773254395,-19.55769920349121,-6.606163024902344
2026-04-02 13:03:50.033,1969.039614355,707851023,right_foot,右脚,D4:22:CD:00:85:22,0.25895705819129944,0.3679550588130951,-0.20166751742362976,0.8699890375137329,-13.899508666068126,-48.131611606656136,153.08021343512527,7.414772987365723,-1.5937507152557373,5.54948616027832,9.675362586975098,-30.869396209716797,-9.93272590637207
2026-04-02 13:03:50.093,1969.099284146,707884357,right_foot,右脚,D4:22:CD:00:85:22,0.2608732283115387,0.3813658356666565,-0.20053590834140778,0.8638814091682434,-13.203799144338923,-49.77712237265144,152.5408196348444,7.678840637207031,-1.1533384323120117,5.623205661773682,11.706855773925781,-43.50819778442383,-18.090452194213867
2026-04-02 13:03:50.123,1969.129649257,707917691,right_foot,右脚,D4:22:CD:00:85:22,0.2628662884235382,0.3959277868270874,-0.20160402357578278,0.8564453721046448,-12.770895043835319,-51.644030643038214,152.07406710301345,7.821354866027832,-0.9141595363616943,6.292012691497803,5.310233116149902,-50.73862838745117,-17.52340316772461
2026-04-02 13:03:50.153,1969.159617359,707951025,right_foot,右脚,D4:22:CD:00:85:22,0.26461324095726013,0.41491982340812683,-0.20426365733146667,0.8462256789207458,-12.429175655253012,-54.128500571238675,151.64026425019998,7.809069633483887,-0.7958189845085144,6.4656662940979,1.1687074899673462,-69.08615112304688,-21.880840301513672
2026-04-02 13:03:50.213,1969.219218716,707984359,right_foot,右脚,D4:22:CD:00:85:22,0.26455754041671753,0.438163161277771,-0.20933708548545837,0.8331871032714844,-12.485075491000085,-57.23600522769761,151.59928951058407,8.408605575561523,-0.7895378470420837,6.75436544418335,-3.049325942993164,-88.9582748413086,-20.01987648010254
2026-04-02 13:03:50.213,1969.219287575,708017693,right_foot,右脚,D4:22:CD:00:85:22,0.26384827494621277,0.46803000569343567,-0.2159613072872162,0.8152870535850525,-12.648278194179596,-61.29680857888468,151.6485136235988,8.706411361694336,-1.0295546054840088,7.76759147644043,-3.970686912536621,-117.44148254394531,-25.043296813964844
2026-04-02 13:03:50.243,1969.249622898,708051027,right_foot,右脚,D4:22:CD:00:85:22,0.26308950781822205,0.5108599662780762,-0.22371935844421387,0.7872458696365356,-12.44975505417272,-67.22924907429739,151.3361804021474,8.697066307067871,-1.9784845113754272,9.202466011047363,-2.810457229614258,-171.59149169921875,-41.9972038269043
2026-04-02 13:03:50.303,1969.309427556,708084361,right_foot,右脚,D4:22:CD:00:85:22,0.2617141604423523,0.5704050660133362,-0.23098653554916382,0.743497908115387,-10.489212130013867,-75.71832641655332,149.37810953187633,9.719050407409668,-3.283400774002075,10.578700065612793,2.6925435066223145,-245.078369140625,-68.44270324707031
2026-04-02 13:03:50.303,1969.30952338,708117695,right_foot,右脚,D4:22:CD:00:85:22,0.26091787219047546,0.6476887464523315,-0.23631690442562103,0.6757038831710815,20.694808197019164,-86.97862964642013,118.12004868431202,11.956450462341309,-6.0017290115356445,13.771553039550781,3.4341695308685303,-336.3515625,-109.77371215820312
2026-04-02 13:03:50.333,1969.339173015,708151029,right_foot,右脚,D4:22:CD:00:85:22,0.2618939280509949,0.7219529747962952,-0.23885469138622284,0.5942593812942505,148.9432381407594,-79.47131384337222,-10.60154056452192,14.892579078674316,-3.4428491592407227,11.301305770874023,-7.780949115753174,-356.72271728515625,-130.3709716796875
2026-04-02 13:03:50.393,1969.399440844,708184363,right_foot,右脚,D4:22:CD:00:85:22,0.2624013423919678,0.7488953471183777,-0.2503777742385864,0.5546282529830933,154.98472451367996,-74.17849685807654,-17.932016294693284,17.016769409179688,-6.739668369293213,5.7795257568359375,-33.2177848815918,-164.67152404785156,-30.60126304626465
2026-04-02 13:03:50.423,1969.429526749,708217697,right_foot,右脚,D4:22:CD:00:85:22,0.24012185633182526,0.7360649108886719,-0.21802201867103577,0.5941519737243652,152.1441617078252,-78.34231807449527,-10.152900266860314,5.163064956665039,-9.576820373535156,10.233793258666992,141.37933349609375,134.5210418701172,4.911040306091309
2026-04-02 13:03:50.454,1969.460435786,708251031,right_foot,右脚,D4:22:CD:00:85:22,0.264835387468338,0.6979741454124451,-0.2033347338438034,0.6335216164588928,116.97025964219512,-82.77665114265912,24.285150154514767,-2.4555461406707764,2.7028796672821045,10.488443374633789,-34.521873474121094,205.85208129882812,-27.61636734008789
2026-04-02 13:03:50.483,1969.489466708,708284365,right_foot,右脚,D4:22:CD:00:85:22,0.2953588664531708,0.643711268901825,-0.1923651099205017,0.6792604327201843,50.720646614171535,-81.16268788910062,88.80573875530516,3.4895401000976562,-5.239282608032227,5.296578884124756,-66.66268157958984,256.90130615234375,-14.208746910095215
2026-04-02 13:03:50.513,1969.519508084,708317699,right_foot,右脚,D4:22:CD:00:85:22,0.2944260239601135,0.5801956057548523,-0.18236863613128662,0.7371759414672852,15.623764981920855,-74.32300695987709,124.58294012127665,4.8502936363220215,-2.383761405944824,5.977477550506592,-0.4452650547027588,283.7173156738281,79.83829498291016
2026-04-02 13:03:50.543,1969.549523714,708351033,right_foot,右脚,D4:22:CD:00:85:22,0.2820906341075897,0.5099104046821594,-0.1800066977739334,0.792473316192627,0.3285660584652135,-65.46904337083778,140.6011583006145,8.301271438598633,-2.6874780654907227,6.5566864013671875,-5.502704620361328,280.73089599609375,125.65690612792969
2026-04-02 13:03:50.603,1969.609450189,708384367,right_foot,右脚,D4:22:CD:00:85:22,0.27141937613487244,0.4294537305831909,-0.1796635389328003,0.8423907160758972,-7.000224680338559,-55.19143932096856,147.94425890087686,11.741031646728516,-3.2277891635894775,7.907729625701904,-27.123584747314453,298.2049560546875,125.7612533569336
2026-04-02 13:03:50.603,1969.609595388,708417701,right_foot,右脚,D4:22:CD:00:85:22,0.2580833435058594,0.340087354183197,-0.18632444739341736,0.8848825097084045,-12.4366611385193,-44.27068244983837,152.55605013582672,14.42381763458252,-3.420412540435791,9.467890739440918,-56.403629302978516,305.1203918457031,142.46456909179688
2026-04-02 13:03:50.633,1969.639490362,708451035,right_foot,右脚,D4:22:CD:00:85:22,0.24733206629753113,0.24679866433143616,-0.203985795378685,0.9144984483718872,-17.523385532220725,-33.52482619326458,155.04789188486785,18.102418899536133,-1.4944616556167603,8.943446159362793,-104.69161224365234,294.2772521972656,138.61727905273438
2026-04-02 13:03:50.693,1969.699421261,708484369,right_foot,右脚,D4:22:CD:00:85:22,0.2500224709510803,0.16411834955215454,-0.22610251605510712,0.9270554780960083,-21.777890231094393,-24.667705711065064,154.63055912994835,26.130084991455078,0.21557724475860596,0.1227712631225586,-134.0465850830078,253.26869201660156,77.1362533569336
2026-04-02 13:03:50.723,1969.729510828,708517703,right_foot,右脚,D4:22:CD:00:85:22,0.25708678364753723,0.10674818605184555,-0.26253741979599,0.9238969683647156,-27.138215907205385,-19.40469094976385,153.62613404264042,30.724910736083984,7.7474846839904785,-12.686421394348145,-172.39390563964844,156.3385467529297,38.988651275634766
2026-04-02 13:03:50.753,1969.759506032,708551037,right_foot,右脚,D4:22:CD:00:85:22,0.26829010248184204,0.13911284506320953,-0.22588594257831573,0.9260907769203186,-21.80358417564132,-22.263579292792645,152.02792717948205,24.78305435180664,3.544623374938965,-21.595605850219727,143.21246337890625,-57.11155319213867,-75.41356658935547
2026-04-02 13:03:50.786,1969.792364984,708584371,right_foot,右脚,D4:22:CD:00:85:22,0.23402206599712372,0.19878071546554565,-0.1826312094926834,0.9340053200721741,-16.19580422971734,-27.181058435772325,155.80746160479444,6.532628536224365,12.981099128723145,14.065393447875977,216.41697692871094,-169.74595642089844,51.72495651245117
2026-04-02 13:03:50.813,1969.819432336,708617705,right_foot,右脚,D4:22:CD:00:85:22,0.22626559436321259,0.2633324861526489,-0.1839180588722229,0.9195838570594788,-15.43216340053916,-34.57893062110919,157.1835452733987,11.798944473266602,11.466714859008789,12.021183013916016,43.60157012939453,-219.9844970703125,-25.253204345703125
2026-04-02 13:03:50.843,1969.849724497,708651039,right_foot,右脚,D4:22:CD:00:85:22,0.22608682513237,0.30248042941093445,-0.1861869990825653,0.9070420265197754,-15.046092331778539,-39.26540110389387,157.4020515938469,18.197959899902344,-7.514383792877197,3.2459206581115723,14.784825325012207,-133.54945373535156,-30.49880599975586
2026-04-02 13:03:50.873,1969.879620333,708684373,right_foot,右脚,D4:22:CD:00:85:22,0.22707690298557281,0.3283962309360504,-0.18087467551231384,0.8988195657730103,-13.757217653146014,-42.25896806800586,156.9814977398606,8.18114948272705,0.804136335849762,6.577432155609131,29.908998489379883,-80.96397399902344,-30.328014373779297
2026-04-02 13:03:50.903,1969.909267738,708717707,right_foot,右脚,D4:22:CD:00:85:22,0.2264619618654251,0.3460935056209564,-0.1829429417848587,0.8918893337249756,-13.740383662288354,-44.444106781541976,157.14195024789709,7.9137444496154785,2.4018912315368652,6.680082321166992,3.2323157787323,-61.124019622802734,-10.924575805664062
2026-04-02 13:03:50.933,1969.939619622,708751041,right_foot,右脚,D4:22:CD:00:85:22,0.22536306083202362,0.3581070601940155,-0.1893278807401657,0.8860733509063721,-14.528920344425044,-46.05061000610192,157.66199540204425,7.6411662101745605,-2.407365083694458,5.719478607177734,-13.189876556396484,-46.34423065185547,0.1524805873632431
2026-04-02 13:03:50.993,1969.999650999,708784375,right_foot,右脚,D4:22:CD:00:85:22,0.2264227271080017,0.36291396617889404,-0.18782258033752441,0.88416588306427,-14.139874172287335,-46.61934260588639,157.38976451570426,8.331304550170898,-1.931105136871338,4.715037822723389,5.247109413146973,-12.255475044250488,-8.540264129638672
2026-04-02 13:03:51.023,1970.029456938,708817709,right_foot,右脚,D4:22:CD:00:85:22,0.22754676640033722,0.3642239570617676,-0.1839693933725357,0.8841485977172852,-13.453360393225838,-46.700555635169756,156.96456836928547,7.5312700271606445,-0.9289093613624573,5.627235412597656,10.841413497924805,2.4389469623565674,-8.03930377960205
2026-04-02 13:03:51.053,1970.059617652,708851043,right_foot,右脚,D4:22:CD:00:85:22,0.22722077369689941,0.3659878373146057,-0.18147242069244385,0.8840201497077942,-13.058485102325873,-46.848655153026755,156.84791646151828,7.296469211578369,-0.9800765514373779,5.6067352294921875,8.817607879638672,-1.2524815797805786,-2.3742551803588867
2026-04-02 13:03:51.083,1970.089622174,708884377,right_foot,右脚,D4:22:CD:00:85:22,0.22706393897533417,0.37181755900382996,-0.17914661765098572,0.882099986076355,-12.585350819722589,-47.50326500706969,156.6855593544978,7.08732271194458,-1.2668558359146118,5.594663143157959,10.158608436584473,-16.0668888092041,-6.679266929626465
2026-04-02 13:03:51.113,1970.119603926,708917711,right_foot,右脚,D4:22:CD:00:85:22,0.228046253323555,0.3830892741680145,-0.1759265959262848,0.87766033411026,-11.750811874634328,-48.82333266844899,156.2175308775753,6.769259929656982,-1.8938536643981934,5.717215538024902,14.13647747039795,-34.555843353271484,-16.673723220825195
2026-04-02 13:03:51.143,1970.149397688,708951045,right_foot,右脚,D4:22:CD:00:85:22,0.2292461097240448,0.4044620394706726,-0.17202463746070862,0.8684840798377991,-10.466401728643723,-51.38979452058753,155.4735764663373,7.1235270500183105,-1.8932175636291504,6.553395748138428,21.000181198120117,-70.78459167480469,-28.149328231811523
2026-04-02 13:03:51.173,1970.179609938,708984379,right_foot,右脚,D4:22:CD:00:85:22,0.23136313259601593,0.4328081011772156,-0.16979441046714783,0.8545867204666138,-9.002211917320485,-54.916189020506145,154.38771227304642,8.165787696838379,-0.17031148076057434,7.655398368835449,17.463069915771484,-99.15043640136719,-36.493831634521484
2026-04-02 13:03:51.203,1970.209603717,709017713,right_foot,右脚,D4:22:CD:00:85:22,0.23328138887882233,0.46403780579566956,-0.17366132140159607,0.8367142081260681,-8.283336055499088,-59.04346625157197,153.53855561098223,8.504255294799805,0.3299078941345215,9.753217697143555,-0.21478906273841858,-118.76942443847656,-31.670156478881836
2026-04-02 13:03:51.233,1970.239662014,709051047,right_foot,右脚,D4:22:CD:00:85:22,0.23272810876369476,0.5085552334785461,-0.18373872339725494,0.8083621859550476,-8.268938739282113,-65.19158230571179,153.1704780180302,8.589801788330078,-0.24146077036857605,11.166631698608398,-9.73958969116211,-180.59725952148438,-30.992467880249023
2026-04-02 13:03:51.293,1970.299674546,709084381,right_foot,右脚,D4:22:CD:00:85:22,0.22986997663974762,0.5745653510093689,-0.1961796134710312,0.7606236934661865,-7.433946053966436,-74.63279957600753,152.0388991073177,8.138157844543457,-3.053874969482422,14.173591613769531,-7.292613506317139,-278.30645751953125,-49.5998649597168
2026-04-02 13:03:51.323,1970.329618743,709117715,right_foot,右脚,D4:22:CD:00:85:22,0.23388881981372833,0.6717614531517029,-0.20521920919418335,0.6722483038902283,70.93414269936099,-87.67645137707036,72.87988323312901,14.432456970214844,-7.685260772705078,17.701457977294922,-14.650794982910156,-434.4887390136719,-128.023681640625
2026-04-02 13:03:51.353,1970.359528395,709151049,right_foot,右脚,D4:22:CD:00:85:22,0.2391374409198761,0.7554033398628235,-0.20273981988430023,0.5753921270370483,150.20088583330326,-75.07664626175841,-6.937342070735835,18.47854995727539,-8.914612770080566,18.836565017700195,-7.6159138679504395,-413.4680480957031,-155.30252075195312
2026-04-02 13:03:51.383,1970.389605933,709184383,right_foot,右脚,D4:22:CD:00:85:22,0.24502825736999512,0.7775766849517822,-0.19279053807258606,0.5460472702980042,148.98298658197683,-70.6765084767622,-5.588607235365149,17.518020629882812,-14.098217010498047,12.181936264038086,2.079235315322876,-109.80776977539062,-77.8134994506836
2026-04-02 13:03:51.413,1970.419609059,709217717,right_foot,右脚,D4:22:CD:00:85:22,0.24485571682453156,0.7564850449562073,-0.15800783038139343,0.58549964427948,136.3630659088071,-74.41254981158937,10.217440898610795,-2.0236213207244873,-3.6899526119232178,16.822315216064453,74.17262268066406,171.49298095703125,-46.8835334777832
2026-04-02 13:03:51.443,1970.449529401,709251051,right_foot,右脚,D4:22:CD:00:85:22,0.2835887372493744,0.7031946778297424,-0.16358467936515808,0.6311379671096802,102.45531827135929,-78.63940020041359,40.48970398803246,-0.26530197262763977,-1.8800735473632812,9.135440826416016,-131.8238067626953,239.19725036621094,2.599768877029419
2026-04-02 13:03:51.473,1970.479381916,709284385,right_foot,右脚,D4:22:CD:00:85:22,0.30774790048599243,0.6329531073570251,-0.16574116051197052,0.6907906532287598,48.157965473213274,-77.55116830178223,92.47885545584715,4.3495564460754395,-0.5422258973121643,6.032262325286865,-97.61050415039062,305.16546630859375,49.062442779541016
2026-04-02 13:03:51.503,1970.509611245,709317719,right_foot,右脚,D4:22:CD:00:85:22,0.31202709674835205,0.5515610575675964,-0.17756387591362,0.7529215216636658,13.16212502882312,-70.2835325243772,125.69421150635752,6.580445766448975,0.27402782440185547,6.660477161407471,-87.61530303955078,315.6169128417969,126.47764587402344
2026-04-02 13:03:51.533,1970.539631389,709351053,right_foot,右脚,D4:22:CD:00:85:22,0.3037675619125366,0.4581690728664398,-0.18826448917388916,0.8138570189476013,-3.1567093662355905,-59.33288766985416,140.86280026400706,11.806451797485352,-1.1175012588500977,7.693363666534424,-74.58568572998047,338.17626953125,163.03704833984375
2026-04-02 13:03:51.593,1970.599298319,709384387,right_foot,右脚,D4:22:CD:00:85:22,0.28088995814323425,0.35410284996032715,-0.1954086273908615,0.8703606724739075,-11.853651006489285,-46.566337374740826,149.34302139072344,14.927010536193848,-1.1856688261032104,10.593867301940918,-55.708072662353516,355.6521301269531,200.84555053710938
2026-04-02 13:03:51.623,1970.629623192,709417721,right_foot,右脚,D4:22:CD:00:85:22,0.25890299677848816,0.2394026815891266,-0.21160154044628143,0.9115265011787415,-18.209327306285168,-33.09386272351922,153.73943966082965,22.02215576171875,-0.3227289319038391,9.454156875610352,-104.75193786621094,361.1139221191406,201.71194458007812
2026-04-02 13:03:51.653,1970.659622455,709451055,right_foot,右脚,D4:22:CD:00:85:22,0.24535153806209564,0.13591089844703674,-0.23272261023521423,0.9312201738357544,-23.22261552705784,-21.550654293345502,154.95790750134853,31.566621780395508,1.2356436252593994,-2.02925968170166,-132.91537475585938,310.85693359375,152.19955444335938
2026-04-02 13:03:51.683,1970.689628424,709484389,right_foot,右脚,D4:22:CD:00:85:22,0.2338220328092575,0.09049927443265915,-0.25554800033569336,0.9337197542190552,-27.014314001448977,-16.768615076454928,155.93753768129133,35.061885833740234,10.289702415466309,-19.09227180480957,-103.91865539550781,118.3951416015625,86.10258483886719
2026-04-02 13:03:51.713,1970.719765067,709517723,right_foot,右脚,D4:22:CD:00:85:22,0.234241783618927,0.12406011670827866,-0.241669163107872,0.9334539175033569,-24.754838724271803,-20.171218657841358,156.2966779853454,26.89573097229004,5.656555652618408,-21.112247467041016,71.24264526367188,-93.81898498535156,-34.222835540771484
2026-04-02 13:03:51.743,1970.749481504,709551057,right_foot,右脚,D4:22:CD:00:85:22,0.22285419702529907,0.1929379254579544,-0.18947729468345642,0.9365947842597961,-17.484580206907832,-26.47842053557107,157.3757560408015,0.17582851648330688,6.369185924530029,16.215665817260742,230.8514862060547,-183.76571655273438,-39.1805534362793
2026-04-02 13:03:51.773,1970.779537155,709584391,right_foot,右脚,D4:22:CD:00:85:22,0.21071146428585052,0.279180645942688,-0.1806323528289795,0.9192556738853455,-15.393681780816163,-36.11439127776015,159.22526408599987,23.20482635498047,9.192028045654297,12.052574157714844,91.00787353515625,-287.5874328613281,-35.16771697998047
2026-04-02 13:03:51.803,1970.809534792,709617725,right_foot,右脚,D4:22:CD:00:85:22,0.20907114446163177,0.3252740502357483,-0.17777347564697266,0.9049214720726013,-14.365517664526548,-41.53132334846919,159.45319123088106,17.064218521118164,-0.8048946857452393,5.3669915199279785,34.4784049987793,-154.47543334960938,-35.114315032958984
2026-04-02 13:03:51.833,1970.839436191,709651059,right_foot,右脚,D4:22:CD:00:85:22,0.20883797109127045,0.35203713178634644,-0.1813608855009079,0.8941839337348938,-14.484250755125723,-44.855554908684425,159.71298461472415,9.6050386428833,-0.7235548496246338,4.618005752563477,1.1233607530593872,-93.917236328125,-17.790319442749023
2026-04-02 13:03:51.893,1970.899538206,709684393,right_foot,右脚,D4:22:CD:00:85:22,0.20868735015392303,0.36914071440696716,-0.18157170712947845,0.8872523903846741,-14.259894757087817,-46.95561242392998,159.74836310864066,7.840099334716797,-0.7060977220535278,5.91925048828125,6.892272472381592,-57.21394729614258,-13.4028959274292
2026-04-02 13:03:51.923,1970.929477785,709717727,right_foot,右脚,D4:22:CD:00:85:22,0.2095649540424347,0.37913328409194946,-0.18254467844963074,0.8826202154159546,-14.191544236892328,-48.225360256773804,159.66464562123778,8.125434875488281,-0.8447772264480591,5.621921062469482,-0.40722301602363586,-32.6966667175293,-9.509446144104004
2026-04-02 13:03:51.953,1970.959480559,709751061,right_foot,右脚,D4:22:CD:00:85:22,0.21022257208824158,0.38325294852256775,-0.1819010078907013,0.8808154463768005,-13.976489761481469,-48.731727548011364,159.50791871159862,7.955992221832275,-1.4991296529769897,5.36831521987915,2.3443830013275146,-10.319551467895508,-5.276060581207275
2026-04-02 13:03:51.983,1970.989541174,709784395,right_foot,右脚,D4:22:CD:00:85:22,0.21001921594142914,0.3904716670513153,-0.1823347806930542,0.8775981068611145,-13.939869652308214,-49.6356606682957,159.5546454564983,7.457332134246826,-0.9949437975883484,5.216487407684326,1.5954370498657227,-23.03105926513672,-4.267505645751953
2026-04-02 13:03:52.013,1971.019532333,709817729,right_foot,右脚,D4:22:CD:00:85:22,0.20978856086730957,0.3986283540725708,-0.18260228633880615,0.8739227056503296,-13.863451612066884,-50.656241554271745,159.58918093146704,7.241880416870117,-1.0865111351013184,5.205018997192383,2.531313419342041,-26.524635314941406,-5.360467433929443
2026-04-02 13:03:52.043,1971.04947981,709851063,right_foot,右脚,D4:22:CD:00:85:22,0.2111167013645172,0.4090823531150818,-0.1789945662021637,0.8695072531700134,-12.976657169530542,-51.90391642190522,159.04164846776334,6.930614471435547,-2.5687859058380127,5.183180332183838,13.256819725036621,-30.80588150024414,-17.406700134277344
2026-04-02 13:03:52.073,1971.079394379,709884397,right_foot,右脚,D4:22:CD:00:85:22,0.21327094733715057,0.42609426379203796,-0.17201310396194458,0.8621895909309387,-11.24570549450243,-53.91252824057178,157.94525784623966,7.7644734382629395,-1.436995267868042,5.93972110748291,25.20366859436035,-51.69715118408203,-30.910123825073242
2026-04-02 13:03:52.103,1971.109523272,709917731,right_foot,右脚,D4:22:CD:00:85:22,0.21427035331726074,0.446887344121933,-0.16845102608203888,0.8520590662956238,-9.965123314392685,-56.484506944514145,157.1309744063587,7.888184070587158,-0.11352411657571793,6.996747016906738,17.853408813476562,-70.38777923583984,-26.83251190185547
2026-04-02 13:03:52.133,1971.139609608,709951065,right_foot,右脚,D4:22:CD:00:85:22,0.21545584499835968,0.47559499740600586,-0.16979414224624634,0.8357980251312256,-9.146634125937764,-60.24653636461497,156.4040569308729,8.379599571228027,-0.7319464683532715,9.852154731750488,5.456209182739258,-106.7806396484375,-28.95404052734375
2026-04-02 13:03:52.193,1971.199472241,709984399,right_foot,右脚,D4:22:CD:00:85:22,0.21558156609535217,0.5180084705352783,-0.17907963693141937,0.8081598877906799,-9.40243263556509,-66.1319556891117,156.25693821269402,8.680291175842285,0.8499658703804016,11.871489524841309,-12.116317749023438,-171.76341247558594,-29.361282348632812
2026-04-02 13:03:52.223,1971.229539975,710017733,right_foot,右脚,D4:22:CD:00:85:22,0.21221962571144104,0.5858340263366699,-0.197231262922287,0.7568761706352234,-11.950733351010877,-76.05320215598137,158.0332340072291,8.286225318908691,-3.0103471279144287,15.667943954467773,-26.261198043823242,-294.1282043457031,-36.99231719970703
2026-04-02 13:03:52.253,1971.259534119,710051067,right_foot,右脚,D4:22:CD:00:85:22,0.21300916373729706,0.6840741038322449,-0.2086249589920044,0.6656918525695801,149.23790812552616,-88.46869150168034,-3.932983326137801,14.576532363891602,-7.856708526611328,20.34943389892578,-21.75733184814453,-447.8973388671875,-111.72504425048828
2026-04-02 13:03:52.283,1971.289464029,710084401,right_foot,右脚,D4:22:CD:00:85:22,0.21407517790794373,0.7722889184951782,-0.20922990143299103,0.560325562953949,161.06804838489464,-72.75543508902204,-16.312955961912465,18.06476593017578,-7.894147872924805,23.695068359375,-15.064966201782227,-451.7852478027344,-141.6671142578125
2026-04-02 13:03:52.313,1971.319544861,710117735,right_foot,右脚,D4:22:CD:00:85:22,0.2063761055469513,0.7952908873558044,-0.20744232833385468,0.5309324860572815,162.90171852404933,-68.45251773948782,-17.560455056672982,13.958515167236328,-18.070446014404297,14.588334083557129,19.53889274597168,-129.1915740966797,-28.57248306274414
2026-04-02 13:03:52.343,1971.349523645,710151069,right_foot,右脚,D4:22:CD:00:85:22,0.18488124012947083,0.7763434052467346,-0.18424296379089355,0.5737290382385254,164.5279501948722,-73.52570072027338,-15.111064353487608,-1.7336571216583252,-0.6957725882530212,19.23532485961914,117.93903350830078,148.84959411621094,18.293394088745117
2026-04-02 13:03:52.373,1971.379526524,710184403,right_foot,右脚,D4:22:CD:00:85:22,0.21742089092731476,0.7111864686012268,-0.19292296469211578,0.640096127986908,144.093951308582,-83.90435436468695,2.1221345099393143,3.1523821353912354,-3.7262682914733887,9.711447715759277,-103.59841918945312,316.28106689453125,41.22697830200195
2026-04-02 13:03:52.403,1971.4092917,710217737,right_foot,右脚,D4:22:CD:00:85:22,0.25561222434043884,0.6221527457237244,-0.1836257427930832,0.7168474793434143,19.08065901821657,-80.350249748548,124.59681403546253,4.95770788192749,0.6094674468040466,7.134973049163818,-88.56838989257812,411.5811462402344,7.930543899536133
2026-04-02 13:03:52.433,1971.439540358,710251071,right_foot,右脚,D4:22:CD:00:85:22,0.28611263632774353,0.5196384787559509,-0.1886892020702362,0.7826315760612488,0.29506755353300373,-67.12326529809977,139.6416736229005,9.577566146850586,-0.8772740364074707,7.231065273284912,-126.03347778320312,403.7137756347656,56.47828674316406
2026-04-02 13:03:52.493,1971.499515175,710284405,right_foot,右脚,D4:22:CD:00:85:22,0.29365187883377075,0.4087170958518982,-0.20053762197494507,0.8405378460884094,-9.414654587454606,-53.5967980524927,146.2484011949931,14.182634353637695,-2.6744048595428467,8.37877368927002,-116.42277526855469,390.7336120605469,128.0450897216797
2026-04-02 13:03:52.523,1971.529440818,710317739,right_foot,右脚,D4:22:CD:00:85:22,0.2782899737358093,0.2945452928543091,-0.22104613482952118,0.8870945572853088,-17.38990027158568,-40.211325233707,151.57410974080645,18.734920501708984,-1.8372304439544678,10.824958801269531,-120.37409210205078,359.8611755371094,197.2073974609375
2026-04-02 13:03:52.553,1971.559500889,710351073,right_foot,右脚,D4:22:CD:00:85:22,0.26391956210136414,0.1811191290616989,-0.2537035644054413,0.9127853512763977,-24.52303003381485,-27.681770257651493,153.87707236215337,32.111549377441406,0.53007572889328,3.8406918048858643,-173.88003540039062,326.3659973144531,186.0203094482422
2026-04-02 13:03:52.583,1971.589549451,710384407,right_foot,右脚,D4:22:CD:00:85:22,0.24562318623065948,0.09684599190950394,-0.2697349190711975,0.9260310530662537,-28.406049051855128,-18.172021161851383,154.92520087441028,36.89981460571289,8.443021774291992,-14.174477577209473,-103.72089385986328,240.8072052001953,151.71359252929688
2026-04-02 13:03:52.613,1971.619533884,710417741,right_foot,右脚,D4:22:CD:00:85:22,0.23193508386611938,0.09309054911136627,-0.2683223485946655,0.930345892906189,-28.537980166884374,-17.31828314556723,156.43905723002865,33.65131378173828,14.109647750854492,-26.386798858642578,8.106504440307617,5.349356174468994,46.460662841796875
2026-04-02 13:03:52.643,1971.649521462,710451075,right_foot,右脚,D4:22:CD:00:85:22,0.2178190052509308,0.16675879061222076,-0.20373724400997162,0.9398074150085449,-19.81120678507152,-23.715645682525587,158.10163791912584,10.913650512695312,-0.3965314030647278,6.321579456329346,279.2517395019531,-190.47755432128906,-34.89731979370117
2026-04-02 13:03:52.673,1971.679499758,710484409,right_foot,右脚,D4:22:CD:00:85:22,0.20837493240833282,0.2650585472583771,-0.17739929258823395,0.9245830178260803,-15.277708868200218,-34.33760780864083,159.34426419466413,10.14869499206543,12.551057815551758,15.315386772155762,153.71261596679688,-309.92791748046875,-63.8160285949707
2026-04-02 13:03:52.703,1971.709505235,710517743,right_foot,右脚,D4:22:CD:00:85:22,0.2044457048177719,0.3318060636520386,-0.17196327447891235,0.9047295451164246,-13.685605038076016,-42.121396181705485,159.82446765714548,24.658464431762695,0.024166516959667206,4.518540859222412,55.871822357177734,-224.3707733154297,-45.804927825927734
2026-04-02 13:03:52.733,1971.739412976,710551077,right_foot,右脚,D4:22:CD:00:85:22,0.2039688527584076,0.3671109974384308,-0.17498779296875,0.890508770942688,-13.599761351450375,-46.486733924382015,160.0616616954406,11.211236953735352,1.2505509853363037,4.046797752380371,6.754964828491211,-123.03478240966797,-24.023710250854492
2026-04-02 13:03:52.793,1971.799532053,710584411,right_foot,右脚,D4:22:CD:00:85:22,0.20358149707317352,0.3875381052494049,-0.1765991896390915,0.8815792202949524,-13.550142042302806,-49.04244900610262,160.19759311942843,8.666496276855469,-0.28029248118400574,5.622725009918213,3.707146644592285,-69.56852722167969,-13.296096801757812
2026-04-02 13:03:52.823,1971.829524704,710617745,right_foot,右脚,D4:22:CD:00:85:22,0.20440137386322021,0.39841699600219727,-0.1777888685464859,0.8762848973274231,-13.50264375898614,-50.43784201007223,160.1223273064123,8.077536582946777,-0.8006978631019592,5.641669273376465,-1.1007834672927856,-34.81128692626953,-9.14242172241211
2026-04-02 13:03:52.853,1971.859287895,710651079,right_foot,右脚,D4:22:CD:00:85:22,0.20534974336624146,0.4024951159954071,-0.17878568172454834,0.8739936351776123,-13.523570390843961,-50.98521156866594,160.02719911287838,8.164839744567871,-1.1875637769699097,5.299899578094482,-3.6477603912353516,-10.087642669677734,-3.5129480361938477
2026-04-02 13:03:52.883,1971.889501832,710684413,right_foot,右脚,D4:22:CD:00:85:22,0.20537720620632172,0.4056549072265625,-0.17792953550815582,0.8727002143859863,-13.327695412702333,-51.36281124743532,159.94563845213767,7.594362735748291,-1.2227458953857422,5.044811725616455,3.1724393367767334,-5.273690700531006,-2.0685596466064453
2026-04-02 13:03:52.913,1971.919520853,710717747,right_foot,右脚,D4:22:CD:00:85:22,0.20481006801128387,0.41079771518707275,-0.17602720856666565,0.8708115220069885,-12.969304136451056,-51.95796755395839,159.8700876813216,7.192575454711914,-1.1750270128250122,5.352538108825684,8.182209014892578,-11.77309799194336,-3.418614149093628
2026-04-02 13:03:52.943,1971.94951049,710751081,right_foot,右脚,D4:22:CD:00:85:22,0.20491988956928253,0.4191749095916748,-0.17143197357654572,0.8677049279212952,-12.031851368908077,-52.91097791104632,159.42841724459456,7.270285606384277,-1.7112072706222534,5.083913803100586,16.840295791625977,-20.983369827270508,-12.143345832824707
2026-04-02 13:03:52.973,1971.97974831,710784415,right_foot,右脚,D4:22:CD:00:85:22,0.20528599619865417,0.43248817324638367,-0.1665065437555313,0.8620251417160034,-10.865614422105553,-54.48802894089753,158.81680319388062,7.118555545806885,-1.463890552520752,5.763731956481934,19.425308227539062,-39.129920959472656,-18.197179794311523
2026-04-02 13:03:53.003,1972.009666411,710817749,right_foot,右脚,D4:22:CD:00:85:22,0.20704099535942078,0.4566718637943268,-0.16209211945533752,0.8498890995979309,-9.254983765170419,-57.4966343645065,157.70260421375716,7.454461097717285,-1.4380009174346924,7.419838905334473,19.844419479370117,-80.72947692871094,-32.46213150024414
2026-04-02 13:03:53.033,1972.039644322,710851083,right_foot,右脚,D4:22:CD:00:85:22,0.21078605949878693,0.48716220259666443,-0.15962892770767212,0.8323226571083069,-7.250280311045964,-61.4316452675609,155.88855358505683,8.413429260253906,-0.9604048728942871,9.16341781616211,12.468623161315918,-108.3048324584961,-42.66903305053711
2026-04-02 13:03:53.094,1972.100173489,710884417,right_foot,右脚,D4:22:CD:00:85:22,0.2133195698261261,0.528984785079956,-0.1649506688117981,0.8046497702598572,-5.883421280908985,-67.1713515202107,154.21265447267456,8.752073287963867,1.6698373556137085,11.37246322631836,-5.11940336227417,-164.5248565673828,-39.713226318359375
2026-04-02 13:03:53.123,1972.129618107,710917751,right_foot,右脚,D4:22:CD:00:85:22,0.2091095894575119,0.5897247195243835,-0.18318183720111847,0.7582497000694275,-7.479766938931214,-76.15032065145671,155.02735576909228,8.575092315673828,0.40701228380203247,14.118168830871582,-25.311906814575195,-265.22161865234375,-21.804529190063477
2026-04-02 13:03:53.153,1972.159455461,710951085,right_foot,右脚,D4:22:CD:00:85:22,0.20271684229373932,0.6793684959411621,-0.20226915180683136,0.6756123304367065,156.56236986456437,-89.6934891813248,-9.8438005391417,11.237103462219238,-4.582804203033447,19.53742218017578,-24.93310546875,-418.10430908203125,-58.78715133666992
2026-04-02 13:03:53.183,1972.189587701,710984419,right_foot,右脚,D4:22:CD:00:85:22,0.1983516663312912,0.772297203540802,-0.21150970458984375,0.5652235746383667,166.59901923773705,-73.12639347883669,-20.672672894405014,18.445655822753906,-8.763340950012207,20.72132682800293,-23.499347686767578,-484.7863464355469,-108.95968627929688
2026-04-02 13:03:53.214,1972.220138092,711017753,right_foot,右脚,D4:22:CD:00:85:22,0.20067371428012848,0.8110033273696899,-0.22317719459533691,0.5021910071372986,166.27966315336795,-64.7061698150856,-22.05601108395261,17.140953063964844,-9.875247955322266,12.913885116577148,-48.364036560058594,-251.04898071289062,-44.32719421386719
2026-04-02 13:03:53.273,1972.279319263,711051087,right_foot,右脚,D4:22:CD:00:85:22,0.1755240261554718,0.8000569343566895,-0.19118928909301758,0.5408760905265808,168.16377887786254,-68.84061252802155,-18.75388414437915,0.6395754814147949,-10.458048820495605,17.999492645263672,147.22164916992188,125.81626892089844,-11.509828567504883
2026-04-02 13:03:53.273,1972.279442535,711084421,right_foot,右脚,D4:22:CD:00:85:22,0.2018640637397766,0.7553951144218445,-0.18671761453151703,0.594782292842865,158.556862213846,-76.8995317698262,-10.668547819728776,1.3980498313903809,2.9382693767547607,12.887439727783203,-55.864013671875,246.2689208984375,-0.3855103850364685
2026-04-02 13:03:53.333,1972.33934356,711117755,right_foot,右脚,D4:22:CD:00:85:22,0.2487945854663849,0.6788417100906372,-0.17738372087478638,0.6676905155181885,81.31275746747787,-84.14101248831372,63.56201749625177,6.260926246643066,-3.9269959926605225,5.876728534698486,-109.16312408447266,377.192626953125,-21.802978515625
2026-04-02 13:03:53.333,1972.339491129,711151089,right_foot,右脚,D4:22:CD:00:85:22,0.28070175647735596,0.5824828743934631,-0.17082205414772034,0.7434651255607605,15.510598367032543,-74.15653834621746,126.87900146568151,7.033324718475342,-1.3143329620361328,5.788204669952393,-95.22596740722656,417.7919616699219,33.30241775512695
2026-04-02 13:03:53.393,1972.399517307,711184423,right_foot,右脚,D4:22:CD:00:85:22,0.29193398356437683,0.48305800557136536,-0.17765802145004272,0.8061435222625732,-0.5353827531778926,-61.95234141938658,140.50704932528805,9.784601211547852,-2.070678234100342,7.391740322113037,-98.4061050415039,373.8937072753906,102.00804901123047
2026-04-02 13:03:53.423,1972.429533597,711217757,right_foot,右脚,D4:22:CD:00:85:22,0.2796028256416321,0.3805658221244812,-0.19200998544692993,0.8603049516677856,-10.462763866265687,-49.65658253139326,148.8425716652903,16.74222755432129,-3.2494242191314697,10.290663719177246,-88.30498504638672,346.1997375488281,172.99124145507812
2026-04-02 13:03:53.453,1972.459343587,711251091,right_foot,右脚,D4:22:CD:00:85:22,0.25561296939849854,0.2696714997291565,-0.21484670042991638,0.9032055735588074,-18.174748597743946,-36.65339220003131,154.46173468508277,26.369487762451172,-0.45777562260627747,6.552356243133545,-113.93447875976562,341.1097106933594,213.35650634765625
2026-04-02 13:03:53.483,1972.489523399,711284425,right_foot,右脚,D4:22:CD:00:85:22,0.22582323849201202,0.1816461831331253,-0.2235160768032074,0.9306178092956543,-21.821533378331797,-26.042416631000048,157.82547538759758,33.64817810058594,2.9123446941375732,-6.8498854637146,-56.03762435913086,265.40313720703125,188.08145141601562
2026-04-02 13:03:53.513,1972.519538174,711317759,right_foot,右脚,D4:22:CD:00:85:22,0.20126548409461975,0.15305602550506592,-0.21205483376979828,0.9439805150032043,-21.42598870915393,-21.98243283083582,160.13710831673387,35.06929016113281,8.778363227844238,-24.945396423339844,40.5710334777832,89.26667022705078,103.30131530761719
2026-04-02 13:03:53.543,1972.549402836,711351093,right_foot,右脚,D4:22:CD:00:85:22,0.18546603620052338,0.2218874841928482,-0.17722658812999725,0.9407227635383606,-16.6693376556937,-28.895138645858907,162.01724620973775,20.18274688720703,8.358281135559082,-17.087583541870117,167.35765075683594,-209.41259765625,-18.687314987182617
2026-04-02 13:03:53.573,1972.579509409,711384427,right_foot,右脚,D4:22:CD:00:85:22,0.17747382819652557,0.30289703607559204,-0.15686559677124023,0.9231196641921997,-13.350792023408236,-37.944604299447626,162.84305715447906,9.805917739868164,6.2405009269714355,17.688400268554688,113.11907196044922,-262.7149658203125,-49.165889739990234
2026-04-02 13:03:53.603,1972.609543329,711417761,right_foot,右脚,D4:22:CD:00:85:22,0.18217933177947998,0.36292436718940735,-0.14749027788639069,0.9018555283546448,-10.926453287561122,-45.100818869582454,161.70786248326533,32.0540657043457,2.5108482837677,3.700863838195801,49.53428268432617,-198.97950744628906,-68.59215545654297
2026-04-02 13:03:53.633,1972.639570906,711451095,right_foot,右脚,D4:22:CD:00:85:22,0.18220427632331848,0.3882671594619751,-0.15129190683364868,0.8905959129333496,-11.094394676281055,-48.30620974171565,161.8627370189726,8.352577209472656,0.5530966520309448,5.25331974029541,-2.506517171859741,-88.42699432373047,-13.26181697845459
2026-04-02 13:03:53.693,1972.699610906,711484429,right_foot,右脚,D4:22:CD:00:85:22,0.18127985298633575,0.4055854380130768,-0.15358398854732513,0.8826382756233215,-11.248475482575722,-50.50261358096544,162.10623590025244,7.700039863586426,0.2944808900356293,6.152729511260986,0.04790772870182991,-59.0337028503418,-6.022170543670654
2026-04-02 13:03:53.723,1972.729531956,711517763,right_foot,右脚,D4:22:CD:00:85:22,0.17888939380645752,0.41443970799446106,-0.1561954915523529,0.8785451650619507,-11.729486932881636,-51.63670164680093,162.67165634080914,8.32482624053955,-1.4653048515319824,5.585089683532715,-2.1173195838928223,-29.081647872924805,5.806424140930176
2026-04-02 13:03:53.753,1972.759513103,711551097,right_foot,右脚,D4:22:CD:00:85:22,0.17666642367839813,0.4212343394756317,-0.15660695731639862,0.8756855130195618,-11.884249988488016,-52.47350985259123,163.0609618318575,7.7281880378723145,-1.7060967683792114,5.44071102142334,3.7631781101226807,-19.77021598815918,3.9738950729370117
2026-04-02 13:03:53.783,1972.789297816,711584431,right_foot,右脚,D4:22:CD:00:85:22,0.17550340294837952,0.42895907163619995,-0.15484219789505005,0.8724775314331055,-11.57548922894984,-53.40452736042162,163.09014599338997,7.6384477615356445,-1.2313536405563354,5.308120250701904,9.225050926208496,-21.32244873046875,-3.1818583011627197
2026-04-02 13:03:53.813,1972.819574244,711617765,right_foot,右脚,D4:22:CD:00:85:22,0.17385604977607727,0.43895378708839417,-0.15392902493476868,0.8679860234260559,-11.420289725371527,-54.64022628574939,163.26116133962356,7.024829864501953,-0.8744204640388489,5.916339874267578,8.074357986450195,-30.9634952545166,-2.4931252002716064
2026-04-02 13:03:53.843,1972.84952818,711651099,right_foot,右脚,D4:22:CD:00:85:22,0.17446154356002808,0.4541032910346985,-0.15233883261680603,0.8603177070617676,-10.844885548826653,-56.56386100371826,162.92053987138956,7.089632987976074,-1.9448598623275757,5.400089263916016,8.11797046661377,-49.79484558105469,-14.946093559265137
2026-04-02 13:03:53.873,1972.879545395,711684433,right_foot,右脚,D4:22:CD:00:85:22,0.176567941904068,0.47202154994010925,-0.14844441413879395,0.8508725762367249,-9.557709226743315,-58.835054160608586,161.95130511223846,7.969552516937256,-0.4580099582672119,5.849218845367432,13.36400032043457,-58.79648208618164,-25.642763137817383
2026-04-02 13:03:53.903,1972.909871201,711717767,right_foot,右脚,D4:22:CD:00:85:22,0.1761934906244278,0.4937487244606018,-0.15122774243354797,0.838032603263855,-9.664804415742633,-61.74450894724251,162.04010714796524,7.8071064949035645,0.3052780330181122,7.430540084838867,-1.6364858150482178,-81.05580139160156,-11.478934288024902
2026-04-02 13:03:53.933,1972.939559575,711751101,right_foot,右脚,D4:22:CD:00:85:22,0.1785460263490677,0.5254762768745422,-0.1530558168888092,0.8176614046096802,-8.882338690570379,-66.06102119638683,161.14594841712008,8.413885116577148,-3.376831531524658,9.18704891204834,-1.3396919965744019,-121.1327896118164,-30.773530960083008
2026-04-02 13:03:53.993,1972.999549918,711784435,right_foot,右脚,D4:22:CD:00:85:22,0.17988155782222748,0.5739420652389526,-0.16072042286396027,0.7825613617897034,-8.847165671232236,-72.96204140937554,160.657347328288,8.245946884155273,2.7482643127441406,11.557062149047852,-13.310137748718262,-199.70347595214844,-35.35481262207031
2026-04-02 13:03:54.024,1973.030335917,711817769,right_foot,右脚,D4:22:CD:00:85:22,0.17358839511871338,0.6430724859237671,-0.18238329887390137,0.7232299447059631,-20.864473151389763,-83.46244079649306,171.6584594949468,8.351943969726562,0.7854998707771301,15.633598327636719,-36.52878189086914,-317.397705078125,-13.282297134399414
2026-04-02 13:03:54.053,1973.059359983,711851103,right_foot,右脚,D4:22:CD:00:85:22,0.166612446308136,0.7374603748321533,-0.20668572187423706,0.621026337146759,-176.37304672362131,-80.00973753390399,-34.357051240981555,16.17786407470703,-7.9462080001831055,20.24960708618164,-53.22220230102539,-479.7933654785156,-47.39614486694336
2026-04-02 13:03:54.083,1973.089423186,711884437,right_foot,右脚,D4:22:CD:00:85:22,0.16566289961338043,0.8130558133125305,-0.20952972769737244,0.5172946453094482,172.6867146406884,-65.58854746080931,-24.186315205545494,15.052875518798828,-7.25559139251709,21.775815963745117,-34.324462890625,-428.8392639160156,-103.35678100585938
2026-04-02 13:03:54.113,1973.119505908,711917771,right_foot,右脚,D4:22:CD:00:85:22,0.1630823016166687,0.8254593014717102,-0.20814047753810883,0.4986972212791443,172.19051022404224,-63.02396466604577,-23.511829798892926,17.687875747680664,-19.19606590270996,13.372897148132324,3.0649335384368896,-78.34268188476562,-18.922809600830078
2026-04-02 13:03:54.143,1973.149307995,711951105,right_foot,右脚,D4:22:CD:00:85:22,0.16270464658737183,0.7988187670707703,-0.16840766370296478,0.554125189781189,167.5831788222391,-70.06710215052505,-15.087096943675004,-1.0432419776916504,1.5427788496017456,17.16278648376465,93.37572479248047,220.09336853027344,-63.50278854370117
2026-04-02 13:03:54.173,1973.179483136,711984439,right_foot,右脚,D4:22:CD:00:85:22,0.22303280234336853,0.7329148054122925,-0.17244789004325867,0.6191561818122864,139.72258173041078,-79.89900954960622,7.669027834506216,2.9337892532348633,-0.9124201536178589,7.8896026611328125,-172.9351806640625,331.23516845703125,-30.65913200378418
2026-04-02 13:03:54.203,1973.209513296,712017773,right_foot,右脚,D4:22:CD:00:85:22,0.261380672454834,0.6450042128562927,-0.16653677821159363,0.6985096335411072,42.90383295835719,-81.16763716037302,101.76217064289455,5.659175872802734,-1.5239436626434326,5.242954730987549,-104.18347930908203,408.8273010253906,14.533377647399902
2026-04-02 13:03:54.233,1973.239511215,712051107,right_foot,右脚,D4:22:CD:00:85:22,0.2751506567001343,0.5527388453483582,-0.17183779180049896,0.7676222920417786,6.97481827261947,-70.58774230429175,135.61966415293887,6.616560935974121,0.8361258506774902,7.311167240142822,-85.96063995361328,371.99298095703125,91.67240142822266
2026-04-02 13:03:54.293,1973.299688218,712084441,right_foot,右脚,D4:22:CD:00:85:22,0.2784263789653778,0.4477100968360901,-0.1853943169116974,0.8292548656463623,-6.259048986091525,-57.754385794613796,146.3348636515867,15.387123107910156,-2.687342405319214,8.409603118896484,-104.31639099121094,377.3970642089844,135.54859924316406
2026-04-02 13:03:54.323,1973.329617975,712117775,right_foot,右脚,D4:22:CD:00:85:22,0.2661880552768707,0.3291970193386078,-0.19607259333133698,0.8844936490058899,-13.653966130672494,-43.37177862251118,151.95310575588982,20.703258514404297,-1.3701210021972656,9.219974517822266,-89.1706771850586,399.3908996582031,177.7754669189453
2026-04-02 13:03:54.354,1973.360404048,712151109,right_foot,右脚,D4:22:CD:00:85:22,0.24421584606170654,0.21692705154418945,-0.22226567566394806,0.9186398983001709,-20.540777330555052,-30.472003250664173,155.87587039270846,28.280231475830078,-0.7857373356819153,1.667122721672058,-134.1681365966797,336.65106201171875,201.6322784423828
2026-04-02 13:03:54.383,1973.389604293,712184443,right_foot,右脚,D4:22:CD:00:85:22,0.21655413508415222,0.15668120980262756,-0.23234792053699493,0.9351845383644104,-23.511403108917786,-23.183883196595815,158.81303944285258,38.627891540527344,5.08892297744751,-14.209404945373535,-48.66323471069336,170.31173706054688,153.5037078857422
2026-04-02 13:03:54.413,1973.419396803,712217777,right_foot,右脚,D4:22:CD:00:85:22,0.20561471581459045,0.15910103917121887,-0.2269057035446167,0.938575267791748,-23.07068415497289,-23.076934496360114,160.05855463371722,31.1968936920166,6.8987531661987305,-26.16101837158203,28.39640235900879,-9.427664756774902,33.13114547729492
2026-04-02 13:03:54.443,1973.449614726,712251111,right_foot,右脚,D4:22:CD:00:85:22,0.1940241903066635,0.23627664148807526,-0.1687069535255432,0.9370518326759338,-15.109792614936971,-30.54888160319042,160.75210365014965,11.890301704406738,6.735090255737305,6.097421169281006,248.535400390625,-213.939453125,-54.71278381347656
2026-04-02 13:03:54.473,1973.479352636,712284445,right_foot,右脚,D4:22:CD:00:85:22,0.18107077479362488,0.3217391073703766,-0.1586066484451294,0.9157190918922424,-13.183530031487152,-40.29199459749017,162.4847196338019,14.230451583862305,11.554515838623047,14.282317161560059,87.57593536376953,-289.5452880859375,-29.155527114868164
2026-04-02 13:03:54.503,1973.509376871,712317779,right_foot,右脚,D4:22:CD:00:85:22,0.18453407287597656,0.37023234367370605,-0.15706756711006165,0.8967748880386353,-12.102842969955518,-46.21973642253227,161.92502883482493,21.279659271240234,-2.847172498703003,3.6187450885772705,19.993467330932617,-165.65782165527344,-49.04093551635742
2026-04-02 13:03:54.533,1973.539505246,712351113,right_foot,右脚,D4:22:CD:00:85:22,0.1857019066810608,0.4008530378341675,-0.16065403819084167,0.8826223015785217,-12.125776465341254,-50.109458051914196,161.92180505865664,9.314301490783691,1.13411283493042,5.1285014152526855,-1.6473857164382935,-108.33380889892578,-22.56082534790039
2026-04-02 13:03:54.593,1973.5992906,712384447,right_foot,右脚,D4:22:CD:00:85:22,0.18684786558151245,0.4232816696166992,-0.1614038497209549,0.8717049956321716,-11.804504317242712,-52.96513792028838,161.70041333327782,8.263891220092773,-1.3006129264831543,5.444116592407227,3.5468924045562744,-77.2418212890625,-19.752748489379883
2026-04-02 13:03:54.623,1973.629597887,712417781,right_foot,右脚,D4:22:CD:00:85:22,0.18774965405464172,0.4340522289276123,-0.16013643145561218,0.8664326667785645,-11.322114046085623,-54.31976339756197,161.36962072375232,8.46258544921875,-0.45731714367866516,5.585456848144531,5.606217384338379,-33.05673599243164,-11.889607429504395
2026-04-02 13:03:54.653,1973.659455919,712451115,right_foot,右脚,D4:22:CD:00:85:22,0.1865420639514923,0.4377370774745941,-0.15986475348472595,0.8648883700370789,-11.318279635276575,-54.7687273267638,161.53430135793423,8.00888729095459,-1.1493953466415405,5.482592582702637,3.242856740951538,-8.353349685668945,2.1897122859954834
2026-04-02 13:03:54.683,1973.689514204,712484449,right_foot,右脚,D4:22:CD:00:85:22,0.18469221889972687,0.44153207540512085,-0.15754815936088562,0.863780677318573,-11.013531459110066,-55.181949119374025,161.63012445790662,7.417935848236084,-1.0556687116622925,5.281092166900635,10.644484519958496,-7.238646507263184,1.1479448080062866
2026-04-02 13:03:54.713,1973.719398731,712517783,right_foot,右脚,D4:22:CD:00:85:22,0.18324744701385498,0.4484878480434418,-0.15618790686130524,0.8607463836669922,-10.779275780723951,-56.027992845996245,161.7100165094385,7.2170610427856445,-0.97303307056427,5.2480621337890625,8.165334701538086,-20.138105392456055,-1.5991971492767334
2026-04-02 13:03:54.743,1973.749537524,712551117,right_foot,右脚,D4:22:CD:00:85:22,0.18404559791088104,0.45957738161087036,-0.15172211825847626,0.8555094599723816,-9.655538433044846,-57.37242596019787,161.01002788028055,6.963775634765625,-2.586345911026001,5.305130958557129,15.35944938659668,-32.792171478271484,-16.750228881835938
2026-04-02 13:03:54.773,1973.779519147,712584451,right_foot,右脚,D4:22:CD:00:85:22,0.1867690533399582,0.4768180847167969,-0.1462736427783966,0.8463841676712036,-7.874312769003482,-59.51715380682257,159.6191482125852,7.591708183288574,-0.7934069037437439,6.122525691986084,17.123058319091797,-55.63444900512695,-29.812894821166992
2026-04-02 13:03:54.803,1973.809508731,712617785,right_foot,右脚,D4:22:CD:00:85:22,0.1897214651107788,0.5009981989860535,-0.142853245139122,0.8322257399559021,-5.952857876172414,-62.63442221083337,157.93953487131955,8.037912368774414,-0.7526350617408752,7.504879951477051,12.750258445739746,-85.58998107910156,-33.94491195678711
2026-04-02 13:03:54.833,1973.839198403,712651119,right_foot,右脚,D4:22:CD:00:85:22,0.19228991866111755,0.5303555727005005,-0.14269736409187317,0.8132559657096863,-4.056544822012048,-66.56444047991381,156.05756446446736,8.577624320983887,0.03705204278230667,8.912862777709961,5.085241317749023,-111.43197631835938,-32.952125549316406
2026-04-02 13:03:54.893,1973.899612394,712684453,right_foot,右脚,D4:22:CD:00:85:22,0.1929074078798294,0.5738567113876343,-0.14965155720710754,0.781715989112854,-2.4264136588217617,-72.73136848398941,154.06245846421692,8.657696723937988,0.43224257230758667,11.539766311645508,-8.030671119689941,-180.2393035888672,-29.771169662475586
2026-04-02 13:03:54.923,1973.929621481,712717787,right_foot,右脚,D4:22:CD:00:85:22,0.19142892956733704,0.6366155743598938,-0.16396601498126984,0.728828489780426,1.9954899274967688,-82.19777475842923,148.82624867970563,8.784018516540527,-1.497061848640442,15.124895095825195,-21.805896759033203,-281.22674560546875,-33.64440155029297
2026-04-02 13:03:54.953,1973.959406375,712751121,right_foot,右脚,D4:22:CD:00:85:22,0.19669364392757416,0.7257653474807739,-0.18089570105075836,0.6339190006256104,154.72022434629292,-82.44306867264191,-5.760563279092075,13.794111251831055,-7.3977460861206055,19.773393630981445,-49.306396484375,-439.5649108886719,-87.86615753173828
2026-04-02 13:03:54.983,1973.98961928,712784455,right_foot,右脚,D4:22:CD:00:85:22,0.20301982760429382,0.8056575655937195,-0.1780737042427063,0.527246356010437,158.92399188827096,-67.20025840291548,-10.83575337253348,16.457090377807617,-8.051368713378906,18.826080322265625,-22.22916030883789,-436.61859130859375,-142.73651123046875
2026-04-02 13:03:55.013,1974.019613074,712817789,right_foot,右脚,D4:22:CD:00:85:22,0.19043497741222382,0.8279833793640137,-0.17326052486896515,0.49815574288368225,161.68287663936852,-62.988931174177196,-12.355611196463135,17.31090545654297,-15.957866668701172,12.567940711975098,41.11231231689453,-128.00213623046875,-25.090660095214844
2026-04-02 13:03:55.043,1974.049521171,712851123,right_foot,右脚,D4:22:CD:00:85:22,0.15592652559280396,0.8130356073379517,-0.13746948540210724,0.5438407063484192,163.87655043256268,-68.00147274559885,-8.278887578795906,-3.5465762615203857,-3.428110361099243,17.319992065429688,176.57424926757812,154.45068359375,-5.659151077270508
2026-04-02 13:03:55.073,1974.07940984,712884457,right_foot,右脚,D4:22:CD:00:85:22,0.18411020934581757,0.7660633325576782,-0.14237616956233978,0.5991491079330444,152.51247530738112,-76.02422325637188,0.5885054370897062,1.486882209777832,-0.26152580976486206,10.763935089111328,-87.21281433105469,248.08592224121094,11.435141563415527
2026-04-02 13:03:55.103,1974.109635463,712917791,right_foot,右脚,D4:22:CD:00:85:22,0.2129729688167572,0.6877635717391968,-0.1325516700744629,0.6812151670455933,80.48973925229011,-83.45846689672865,71.17951849729008,7.117089748382568,-4.403130531311035,6.643774032592773,-65.06468200683594,392.88604736328125,3.066005229949951
2026-04-02 13:03:55.133,1974.139613794,712951125,right_foot,右脚,D4:22:CD:00:85:22,0.23404937982559204,0.5938149690628052,-0.13072365522384644,0.758627712726593,16.99043793711649,-74.18791764949643,132.82093592143198,7.828829765319824,-1.317134976387024,7.320843696594238,-78.48966217041016,408.99072265625,43.731388092041016
2026-04-02 13:03:55.193,1974.199496753,712984459,right_foot,右脚,D4:22:CD:00:85:22,0.2413809448480606,0.49338892102241516,-0.14443522691726685,0.8230683207511902,0.052171176032934787,-61.874003603174415,147.27910857284618,13.878777503967285,-3.1776559352874756,8.178875923156738,-101.67801666259766,380.46368408203125,103.74209594726562
2026-04-02 13:03:55.223,1974.22963121,713017793,right_foot,右脚,D4:22:CD:00:85:22,0.22653846442699432,0.3870692253112793,-0.1666516214609146,0.8781145811080933,-10.310712697242204,-49.05054825652798,155.7826220659425,18.01030731201172,-3.669646978378296,10.96086597442627,-97.49750518798828,363.26727294921875,176.00393676757812
2026-04-02 13:03:55.253,1974.259582152,713051127,right_foot,右脚,D4:22:CD:00:85:22,0.20898285508155823,0.2766050696372986,-0.21139001846313477,0.9138545989990234,-19.66547874934909,-36.43477587705011,160.76738040556873,28.056909561157227,-0.4166974723339081,4.596958160400391,-176.48077392578125,331.6067810058594,201.5494384765625
2026-04-02 13:03:55.284,1974.290578156,713084461,right_foot,右脚,D4:22:CD:00:85:22,0.18281559646129608,0.19457672536373138,-0.2317388653755188,0.9354226589202881,-23.92435401324249,-26.66376160804059,163.6319614492396,34.752349853515625,5.182250022888184,-9.281063079833984,-81.35961151123047,241.49073791503906,174.87855529785156
2026-04-02 13:03:55.313,1974.31956289,713117795,right_foot,右脚,D4:22:CD:00:85:22,0.16342847049236298,0.17633990943431854,-0.23735180497169495,0.9412011504173279,-25.249651676343092,-24.174854441519642,165.7912540929444,35.244232177734375,12.246231079101562,-25.560775756835938,-11.079835891723633,43.12058639526367,83.64984130859375
2026-04-02 13:03:55.343,1974.349626957,713151129,right_foot,右脚,D4:22:CD:00:85:22,0.1522991806268692,0.2455768883228302,-0.17715924978256226,0.9408038258552551,-17.567918305851666,-31.06710384152549,166.52792532890155,17.532503128051758,7.090717315673828,-5.867486476898193,241.25962829589844,-197.0809783935547,-56.697139739990234
2026-04-02 13:03:55.373,1974.37962389,713184463,right_foot,右脚,D4:22:CD:00:85:22,0.14063136279582977,0.3291926085948944,-0.15065830945968628,0.9214972853660583,-14.080497756044561,-40.471872593873535,167.85920279611213,6.008186340332031,8.164779663085938,16.299087524414062,127.88430786132812,-277.08062744140625,-44.989070892333984
2026-04-02 13:03:55.403,1974.409373486,713217797,right_foot,右脚,D4:22:CD:00:85:22,0.14315129816532135,0.39354264736175537,-0.13783426582813263,0.8975709676742554,-11.673458664980254,-48.23879951602192,167.11775127149434,29.646177291870117,1.1146522760391235,3.517547607421875,56.08176040649414,-220.03515625,-66.36524963378906
2026-04-02 13:03:55.433,1974.439617226,713251131,right_foot,右脚,D4:22:CD:00:85:22,0.14362162351608276,0.42731043696403503,-0.13970158994197845,0.8816249370574951,-11.719076342405083,-52.52162622128149,167.29219974202775,9.993637084960938,1.7964922189712524,4.880397319793701,1.9698673486709595,-122.16349792480469,-21.318889617919922
2026-04-02 13:03:55.493,1974.499677406,713284465,right_foot,右脚,D4:22:CD:00:85:22,0.14222541451454163,0.4453688859939575,-0.14123044908046722,0.8726239800453186,-12.004084942662923,-54.83054897700555,167.72906175177218,8.318849563598633,-0.42886778712272644,5.44136905670166,1.285248875617981,-65.0467758178711,-5.073546886444092
2026-04-02 13:03:55.523,1974.529264361,713317799,right_foot,右脚,D4:22:CD:00:85:22,0.14075489342212677,0.45248639583587646,-0.1433957815170288,0.86883944272995,-12.500016696143327,-55.75544206767893,168.22681700409169,8.415043830871582,-0.3330281674861908,5.676791667938232,-3.310297966003418,-24.71238899230957,3.997451066970825
2026-04-02 13:03:55.553,1974.559631747,713351133,right_foot,右脚,D4:22:CD:00:85:22,0.13869741559028625,0.4537813067436218,-0.14532126486301422,0.8681748509407043,-13.041279161157798,-55.91776904456899,168.79024690913337,7.949528694152832,-1.4839564561843872,5.2728271484375,-2.9554924964904785,-2.79048228263855,9.767539978027344
2026-04-02 13:03:55.583,1974.589582134,713384467,right_foot,右脚,D4:22:CD:00:85:22,0.1367327719926834,0.45528170466423035,-0.14533282816410065,0.8676987886428833,-13.230128208232768,-56.0821213260603,169.1590818316772,7.691437721252441,-1.1481726169586182,5.137351036071777,2.8458642959594727,-2.29034686088562,6.430511474609375
2026-04-02 13:03:55.613,1974.619672004,713417801,right_foot,右脚,D4:22:CD:00:85:22,0.13508202135562897,0.459560364484787,-0.14460489153862,0.8658214807510376,-13.2587236769867,-56.601395297884906,169.42684159989872,6.950119972229004,-1.4626203775405884,5.413134574890137,5.1813578605651855,-12.412702560424805,2.24997615814209
2026-04-02 13:03:55.643,1974.649208425,713451135,right_foot,右脚,D4:22:CD:00:85:22,0.13529537618160248,0.46955353021621704,-0.14005717635154724,0.8611612915992737,-12.387360882315376,-57.84599935373837,169.00595985401364,6.89089298248291,-3.0036919116973877,5.091442108154297,14.915311813354492,-31.29676055908203,-13.572324752807617
2026-04-02 13:03:55.673,1974.67967825,713484469,right_foot,右脚,D4:22:CD:00:85:22,0.13873417675495148,0.4866422712802887,-0.13173560798168182,0.8523954153060913,-10.323220919170303,-60.01722363681404,167.48437400172537,7.52284049987793,-1.4286415576934814,5.724348545074463,22.264833450317383,-55.80230712890625,-34.723873138427734
2026-04-02 13:03:55.703,1974.709548219,713517803,right_foot,右脚,D4:22:CD:00:85:22,0.14155040681362152,0.5081585645675659,-0.1260237842798233,0.8401528000831604,-8.546944473060943,-62.815348800631526,166.09776857020168,7.689487934112549,-0.4782254099845886,7.113038539886475,16.17034912109375,-76.32144927978516,-32.25286102294922
2026-04-02 13:03:55.733,1974.739567198,713551137,right_foot,右脚,D4:22:CD:00:85:22,0.14509837329387665,0.5366402864456177,-0.12397468835115433,0.821945309638977,-6.96827966594795,-66.65780642629238,164.56293346661226,8.624931335449219,-0.16319842636585236,9.124486923217773,5.101565361022949,-108.67389678955078,-33.92141342163086
2026-04-02 13:03:55.793,1974.799541488,713584471,right_foot,右脚,D4:22:CD:00:85:22,0.1484021097421646,0.5775654911994934,-0.12955224514007568,0.7922192811965942,-6.4520491499211365,-72.47172617800855,163.5108182900434,8.631916046142578,0.4807184338569641,11.515853881835938,-14.708069801330566,-169.54685974121094,-30.1857967376709
2026-04-02 13:03:55.823,1974.829538134,713617805,right_foot,右脚,D4:22:CD:00:85:22,0.150751993060112,0.6378923654556274,-0.14313289523124695,0.7415391802787781,-7.822665777078373,-81.57139966362483,163.76881017392319,8.394457817077637,-0.3293989598751068,13.683228492736816,-34.016136169433594,-269.41802978515625,-30.997512817382812
2026-04-02 13:03:55.853,1974.859609895,713651139,right_foot,右脚,D4:22:CD:00:85:22,0.1594817042350769,0.7272014021873474,-0.16175241768360138,0.6477500796318054,168.48675630125982,-83.55615774008787,-14.787371483846474,12.101076126098633,-4.7814202308654785,18.391712188720703,-67.03559112548828,-439.3338317871094,-73.12312316894531
