local_time,arrival_time_monotonic,timestamp_us,role,role_label,mac_address,quat_w,quat_x,quat_y,quat_z,euler_x,euler_y,euler_z,acc_x,acc_y,acc_z,gyro_x,gyro_y,gyro_z
2026-04-02 12:56:38.825,1539.830312885,276746748,right_foot,右脚,D4:22:CD:00:85:22,0.8015589118003845,0.13537541031837463,-0.4029123783111572,0.4205217659473419,-10.800972062655376,-49.44414862283727,60.3502610460471,0.0,0.0,0.0,0.0,0.0,0.0
2026-04-02 12:56:38.855,1539.860672516,276780082,right_foot,右脚,D4:22:CD:00:85:22,0.8013625144958496,0.13549602031707764,-0.4030778706073761,0.42069894075393677,-10.818741684681601,-49.46673137353886,60.39250341288807,7.101741790771484,-1.1422845125198364,5.970160961151123,1.636379599571228,-1.0850437879562378,1.1111527681350708
2026-04-02 12:56:38.885,1539.890306257,276813416,right_foot,右脚,D4:22:CD:00:85:22,0.8011889457702637,0.1357450783252716,-0.403156042098999,0.4208742678165436,-10.810511879345704,-49.48811635040063,60.42100525989845,7.105032920837402,-1.1307440996170044,5.965892314910889,1.714517593383789,-0.9808832406997681,1.0964637994766235
2026-04-02 12:56:38.945,1539.950596301,276846750,right_foot,右脚,D4:22:CD:00:85:22,0.8009957671165466,0.13607674837112427,-0.4032062888145447,0.42108625173568726,-10.791818060097135,-49.51121951257156,60.45011029563013,7.103840351104736,-1.1237157583236694,5.956271171569824,1.6868813037872314,-0.9178439378738403,1.1059788465499878
2026-04-02 12:56:38.976,1539.981538299,276880084,right_foot,右脚,D4:22:CD:00:85:22,0.8008561134338379,0.13635267317295074,-0.4033008813858032,0.42117220163345337,-10.77471164776627,-49.537222216563805,60.46299942753127,7.112705230712891,-1.127614140510559,5.9651875495910645,1.6270819902420044,-0.9362530708312988,1.08625066280365
2026-04-02 12:56:39.005,1540.010401318,276913418,right_foot,右脚,D4:22:CD:00:85:22,0.800632119178772,0.13669484853744507,-0.4033776819705963,0.4214136302471161,-10.760112021369,-49.56340473030118,60.49946986272037,7.108975887298584,-1.128317952156067,5.9730119705200195,1.66830575466156,-1.0208070278167725,1.1131632328033447
2026-04-02 12:56:39.036,1540.041547147,276946752,right_foot,右脚,D4:22:CD:00:85:22,0.8004184365272522,0.1370120644569397,-0.4034402072429657,0.42165669798851013,-10.747226470845783,-49.58651989514002,60.535963392360834,7.110600471496582,-1.1297399997711182,5.952633857727051,1.6934894323349,-0.990795373916626,1.1192846298217773
2026-04-02 12:56:39.065,1540.070333571,276980086,right_foot,右脚,D4:22:CD:00:85:22,0.8002226948738098,0.13729245960712433,-0.4035143554210663,0.42186570167541504,-10.737501045616444,-49.6090423760439,60.56898406313724,7.106617450714111,-1.1324268579483032,5.9666428565979,1.6770268678665161,-0.9722901582717896,1.113393783569336
2026-04-02 12:56:39.096,1540.101398017,277013420,right_foot,右脚,D4:22:CD:00:85:22,0.8000465631484985,0.1375463306903839,-0.40357163548469543,0.4220625162124634,-10.72822662809671,-49.62829211975719,60.59931919734875,7.105210781097412,-1.119842767715454,5.972643852233887,1.7115720510482788,-0.9213657379150391,1.1296770572662354
2026-04-02 12:56:39.126,1540.131491784,277046754,right_foot,右脚,D4:22:CD:00:85:22,0.7998158931732178,0.13784842193126678,-0.40363606810569763,0.4223392903804779,-10.720340365216988,-49.65025939799465,60.64279548201958,7.095880508422852,-1.1339664459228516,5.993608474731445,1.6585859060287476,-1.0624597072601318,1.1167426109313965
2026-04-02 12:56:39.156,1540.161241813,277080088,right_foot,右脚,D4:22:CD:00:85:22,0.7996374368667603,0.13808278739452362,-0.4036708176136017,0.4225674569606781,-10.713646679889962,-49.66552118674102,60.67753347709132,7.111017227172852,-1.1297053098678589,5.97345495223999,1.6731656789779663,-0.9190092086791992,1.1691397428512573
2026-04-02 12:56:39.185,1540.190276228,277113422,right_foot,右脚,D4:22:CD:00:85:22,0.7994160056114197,0.13835763931274414,-0.4037145674228668,0.42285457253456116,-10.707785145232101,-49.68348981020773,60.72211756731283,7.106332302093506,-1.1357020139694214,5.973629951477051,1.681073546409607,-1.0011684894561768,1.1581711769104004
2026-04-02 12:56:39.245,1540.250356995,277146756,right_foot,右脚,D4:22:CD:00:85:22,0.7992284893989563,0.13859663903713226,-0.4037892520427704,0.4230595827102661,-10.703118753087383,-49.70357923004967,60.75629799773766,7.099115371704102,-1.1288983821868896,5.970693588256836,1.6704316139221191,-1.0737740993499756,1.141497254371643
2026-04-02 12:56:39.275,1540.280328197,277180090,right_foot,右脚,D4:22:CD:00:85:22,0.799028217792511,0.13884203135967255,-0.40386101603507996,0.4232886731624603,-10.699356674212094,-49.72345530760891,60.79433313804408,7.107513904571533,-1.1284278631210327,5.976831912994385,1.6524899005889893,-1.0618641376495361,1.1485663652420044
2026-04-02 12:56:39.305,1540.31026458,277213424,right_foot,右脚,D4:22:CD:00:85:22,0.7988495826721191,0.13906405866146088,-0.4039302468299866,0.4234868288040161,-10.695698910614677,-49.7420184882206,60.827524121199744,7.109548568725586,-1.1342272758483887,5.964922904968262,1.639702558517456,-1.0191742181777954,1.1410937309265137
2026-04-02 12:56:39.335,1540.34040787,277246758,right_foot,右脚,D4:22:CD:00:85:22,0.7986236810684204,0.13933594524860382,-0.40400752425193787,0.4237495958805084,-10.692084480123793,-49.76370376957205,60.87113533078109,7.108678340911865,-1.1361124515533447,5.978067874908447,1.6904994249343872,-1.110957384109497,1.154572606086731
2026-04-02 12:56:39.365,1540.370363578,277280092,right_foot,右脚,D4:22:CD:00:85:22,0.7984617948532104,0.13954582810401917,-0.4041167199611664,0.4238817095756531,-10.68900215243303,-49.78660782216406,60.896706473863574,7.104488849639893,-1.1364396810531616,5.968313217163086,1.679370403289795,-1.149754285812378,1.136125087738037
2026-04-02 12:56:39.395,1540.400313352,277313426,right_foot,右脚,D4:22:CD:00:85:22,0.7982332706451416,0.13981743156909943,-0.4041881561279297,0.4241544008255005,-10.685653467821597,-49.80754365996943,60.94163464648807,7.104305744171143,-1.1263909339904785,5.972844123840332,1.6917797327041626,-1.0915558338165283,1.1514925956726074
2026-04-02 12:56:39.425,1540.430360589,277346760,right_foot,右脚,D4:22:CD:00:85:22,0.7980772256851196,0.14004063606262207,-0.4042733609676361,0.42429298162460327,-10.67878427161458,-49.828691153470075,60.965620079091025,7.107048034667969,-1.1331144571304321,5.974285125732422,1.7238659858703613,-1.0875024795532227,1.0878962278366089
2026-04-02 12:56:39.455,1540.460331408,277380094,right_foot,右脚,D4:22:CD:00:85:22,0.7979019284248352,0.14027178287506104,-0.4043441414833069,0.4244789481163025,-10.673255959342026,-49.848187496132155,60.9964977089167,7.103193759918213,-1.1313257217407227,5.97239875793457,1.6957308053970337,-1.0445115566253662,1.1017848253250122
2026-04-02 12:56:39.485,1540.49023791,277413428,right_foot,右脚,D4:22:CD:00:85:22,0.7977061867713928,0.1405271589756012,-0.4043993651866913,0.42470961809158325,-10.66668794491881,-49.866984323266955,61.03303387752509,7.110288143157959,-1.1293026208877563,5.97410774230957,1.6616015434265137,-1.0145318508148193,1.0488048791885376
2026-04-02 12:56:39.545,1540.550365546,277446762,right_foot,右脚,D4:22:CD:00:85:22,0.7975091338157654,0.14075258374214172,-0.4044712483882904,0.4249367117881775,-10.665495019711415,-49.88570525503165,61.07175942013463,7.1133832931518555,-1.124666690826416,5.993882656097412,1.6486225128173828,-1.0390945672988892,1.1725976467132568
2026-04-02 12:56:39.575,1540.580187426,277480096,right_foot,右脚,D4:22:CD:00:85:22,0.7973268628120422,0.14095914363861084,-0.40454182028770447,0.4251432418823242,-10.664829623852132,-49.90338183110539,61.1074359244388,7.113823890686035,-1.138519287109375,5.963531970977783,1.651804804801941,-1.0158958435058594,1.194009780883789
2026-04-02 12:56:39.605,1540.610112829,277513430,right_foot,右脚,D4:22:CD:00:85:22,0.797143280506134,0.1411544680595398,-0.40462324023246765,0.42534497380256653,-10.666441454041818,-49.921570724438446,61.143783933371246,7.108760356903076,-1.1254090070724487,5.985584735870361,1.6048630475997925,-1.0328450202941895,1.2042036056518555
2026-04-02 12:56:39.635,1540.640184015,277546764,right_foot,右脚,D4:22:CD:00:85:22,0.7969763278961182,0.1413596123456955,-0.4046880006790161,0.425527960062027,-10.663373054398459,-49.93887605316335,61.17475256546327,7.114179611206055,-1.1280057430267334,5.97672176361084,1.6425520181655884,-0.9941184520721436,1.1245863437652588
2026-04-02 12:56:39.665,1540.670178017,277580098,right_foot,右脚,D4:22:CD:00:85:22,0.7967879176139832,0.14157557487487793,-0.40474987030029297,0.42574992775917053,-10.661915713383463,-49.95604767214146,61.21210867520672,7.098381519317627,-1.1465851068496704,5.96920919418335,1.692887544631958,-1.0093774795532227,1.203249454498291
2026-04-02 12:56:39.696,1540.70116862,277613432,right_foot,右脚,D4:22:CD:00:85:22,0.7966213226318359,0.14177586138248444,-0.40478911995887756,0.42595791816711426,-10.65869091661445,-49.97003384857184,61.24541070648982,7.114895820617676,-1.1338002681732178,5.977077484130859,1.6472519636154175,-0.9037761688232422,1.1318155527114868
2026-04-02 12:56:39.725,1540.730234657,277646766,right_foot,右脚,D4:22:CD:00:85:22,0.7964411973953247,0.14199617505073547,-0.4048228859901428,0.4261891841888428,-10.654310433696331,-49.98440857593925,61.281630432653806,7.10495138168335,-1.132853388786316,5.9780802726745605,1.6734730005264282,-0.9158269762992859,1.1206676959991455
2026-04-02 12:56:39.755,1540.760186851,277680100,right_foot,右脚,D4:22:CD:00:85:22,0.7962896823883057,0.14220024645328522,-0.40487366914749146,0.42635577917099,-10.648488617143261,-50.00042069580964,61.30841556367436,7.106281280517578,-1.1301463842391968,5.975725173950195,1.7165793180465698,-0.967218816280365,1.1092956066131592
2026-04-02 12:56:39.785,1540.790150962,277713434,right_foot,右脚,D4:22:CD:00:85:22,0.7961103916168213,0.14242953062057495,-0.4049505889415741,0.4265410006046295,-10.644061217462644,-50.020529736806,61.34006838242095,7.101246356964111,-1.128810167312622,5.9809417724609375,1.669144630432129,-1.090973138809204,1.0800589323043823
2026-04-02 12:56:39.846,1540.851248758,277746768,right_foot,右脚,D4:22:CD:00:85:22,0.7959134578704834,0.1426752805709839,-0.40504190325737,0.42673957347869873,-10.640362345697882,-50.04302576455207,61.37488800146265,7.103108882904053,-1.1304577589035034,5.970087051391602,1.673806071281433,-1.172299861907959,1.0872688293457031
2026-04-02 12:56:39.875,1540.880168431,277780102,right_foot,右脚,D4:22:CD:00:85:22,0.7957412600517273,0.14289738237857819,-0.4051287770271301,0.4269039034843445,-10.636260265934546,-50.06402123025006,61.40403986375593,7.1080217361450195,-1.1345751285552979,5.970679759979248,1.6555954217910767,-1.1259022951126099,1.0674189329147339
2026-04-02 12:56:39.905,1540.910303795,277813436,right_foot,右脚,D4:22:CD:00:85:22,0.7955524921417236,0.14312580227851868,-0.4052111804485321,0.42710110545158386,-10.63365179625645,-50.08451281048941,61.438510739065194,7.099661827087402,-1.124987006187439,5.977392196655273,1.672807216644287,-1.124327301979065,1.1192975044250488
2026-04-02 12:56:39.935,1540.940375847,277846770,right_foot,右脚,D4:22:CD:00:85:22,0.7953698635101318,0.14333315193653107,-0.4052850902080536,0.4273015260696411,-10.63302203216763,-50.10274489849736,61.473652787047726,7.115886211395264,-1.1380207538604736,5.976220607757568,1.6619923114776611,-1.0728328227996826,1.1707215309143066
2026-04-02 12:56:39.965,1540.970309769,277880104,right_foot,右脚,D4:22:CD:00:85:22,0.7951920032501221,0.14353080093860626,-0.4053633213043213,0.4274919927120209,-10.633287092244867,-50.12095460678695,61.50781908987781,7.109318256378174,-1.1247649192810059,5.982746601104736,1.6000863313674927,-1.0713536739349365,1.1371495723724365
2026-04-02 12:56:39.995,1541.0003114,277913438,right_foot,右脚,D4:22:CD:00:85:22,0.7950109839439392,0.14374789595603943,-0.4054167568683624,0.4277052581310272,-10.630214947231579,-50.13748619626624,61.54296750251101,7.092746734619141,-1.1393938064575195,5.9730024337768555,1.7067440748214722,-1.0310841798782349,1.1507115364074707
2026-04-02 12:56:40.026,1541.031377312,277946772,right_foot,右脚,D4:22:CD:00:85:22,0.7948279976844788,0.14396008849143982,-0.40547898411750793,0.427914559841156,-10.62847290391684,-50.15470385508173,61.57849915882899,7.11309289932251,-1.134727120399475,5.973206520080566,1.6543405055999756,-1.0554481744766235,1.1310665607452393
2026-04-02 12:56:40.055,1541.060300813,277980106,right_foot,右脚,D4:22:CD:00:85:22,0.794681191444397,0.14415650069713593,-0.4055437743663788,0.4280596077442169,-10.62356382382322,-50.17204456963142,61.603196719205094,7.114002227783203,-1.140652060508728,5.973145008087158,1.6642141342163086,-1.0513181686401367,1.056270956993103
2026-04-02 12:56:40.085,1541.090364641,278013440,right_foot,右脚,D4:22:CD:00:85:22,0.7945108413696289,0.14435580372810364,-0.40560755133628845,0.42824840545654297,-10.621902998506295,-50.188880462253955,61.63567818605201,7.097529888153076,-1.1390219926834106,5.9678053855896,1.6715713739395142,-1.0594438314437866,1.13993501663208
2026-04-02 12:56:40.145,1541.150337497,278046774,right_foot,右脚,D4:22:CD:00:85:22,0.7943482995033264,0.14455051720142365,-0.4056658148765564,0.4284290671348572,-10.619517623271163,-50.20496256959622,61.66635667677542,7.098013877868652,-1.1311722993850708,5.9680585861206055,1.6844162940979004,-1.0434359312057495,1.1322959661483765
2026-04-02 12:56:40.175,1541.180673456,278080108,right_foot,右脚,D4:22:CD:00:85:22,0.7941903471946716,0.14472591876983643,-0.4057179391384125,0.42861294746398926,-10.619154182647865,-50.21914276046651,61.69786007979401,7.113699436187744,-1.1204253435134888,5.985266208648682,1.6420912742614746,-0.9977747201919556,1.155347466468811
2026-04-02 12:56:40.205,1541.210329979,278113442,right_foot,右脚,D4:22:CD:00:85:22,0.7940314412117004,0.14490284025669098,-0.4057668149471283,0.4288017451763153,-10.618639869759429,-50.23300118184756,61.72986636364179,7.104139804840088,-1.1316862106323242,5.981253147125244,1.6379930973052979,-0.9973329305648804,1.1499301195144653
2026-04-02 12:56:40.237,1541.242606066,278146776,right_foot,右脚,D4:22:CD:00:85:22,0.7938699722290039,0.14506690204143524,-0.405792236328125,0.4290209114551544,-10.61966040897769,-50.243191568702514,61.76573309060828,7.119295120239258,-1.1227140426635742,5.982316017150879,1.6376408338546753,-0.9049864411354065,1.204498052597046
2026-04-02 12:56:40.265,1541.270313386,278180110,right_foot,右脚,D4:22:CD:00:85:22,0.7937242388725281,0.1452130526304245,-0.4058193564414978,0.4292154014110565,-10.621031443429986,-50.252749489128,61.79798986332199,7.10420036315918,-1.138846755027771,5.973937034606934,1.62175452709198,-0.8948372602462769,1.2022632360458374
2026-04-02 12:56:40.295,1541.300055498,278213444,right_foot,右脚,D4:22:CD:00:85:22,0.7935817837715149,0.14538969099521637,-0.40585336089134216,0.4293868839740753,-10.617419252399246,-50.26527904550555,61.825464366087274,7.102512836456299,-1.1301236152648926,5.975430011749268,1.6775133609771729,-0.9767019152641296,1.1048839092254639
2026-04-02 12:56:40.325,1541.330311331,278246778,right_foot,右脚,D4:22:CD:00:85:22,0.7934271693229675,0.1455613076686859,-0.4059070348739624,0.42956334352493286,-10.61716251990821,-50.279501705443266,61.856008626390114,7.103063106536865,-1.134041666984558,5.967676639556885,1.6803054809570312,-1.052054524421692,1.1768492460250854
2026-04-02 12:56:40.355,1541.360309637,278280112,right_foot,右脚,D4:22:CD:00:85:22,0.7932746410369873,0.1457468718290329,-0.40597882866859436,0.4297145903110504,-10.615095117613617,-50.2968418692814,61.88311142268035,7.105005741119385,-1.1275579929351807,5.991570949554443,1.7002642154693604,-1.1487873792648315,1.1275960206985474
2026-04-02 12:56:40.385,1541.390213851,278313446,right_foot,右脚,D4:22:CD:00:85:22,0.7931258082389832,0.145936518907547,-0.40603962540626526,0.42986738681793213,-10.611403986798829,-50.313279913831984,61.90929695091504,7.107104301452637,-1.127058506011963,5.969944953918457,1.7230017185211182,-1.1299492120742798,1.109372615814209
2026-04-02 12:56:40.445,1541.45006947,278346780,right_foot,右脚,D4:22:CD:00:85:22,0.7929837703704834,0.14611496031284332,-0.4060985743999481,0.43001294136047363,-10.608302833894816,-50.328912132571446,61.934452502315125,7.110528945922852,-1.1368032693862915,5.968618869781494,1.653072714805603,-1.106199860572815,1.0674189329147339
2026-04-02 12:56:40.475,1541.480116163,278380114,right_foot,右脚,D4:22:CD:00:85:22,0.7928462624549866,0.1462818682193756,-0.40615031123161316,0.43016117811203003,-10.606043689764515,-50.34301063796582,61.9598602702579,7.109518527984619,-1.1329320669174194,5.960244178771973,1.6876945495605469,-1.0797545909881592,1.1195920705795288
2026-04-02 12:56:40.505,1541.510087857,278413448,right_foot,右脚,D4:22:CD:00:85:22,0.7927082180976868,0.1464225947856903,-0.40619713068008423,0.43032345175743103,-10.607726077406397,-50.35474612943924,61.98846812498226,7.112414836883545,-1.1265263557434082,5.981085777282715,1.6183992624282837,-1.0270180702209473,1.1693509817123413
2026-04-02 12:56:40.535,1541.540288616,278446782,right_foot,右脚,D4:22:CD:00:85:22,0.7925859689712524,0.1465924233198166,-0.40620407462120056,0.4304841160774231,-10.601004551072714,-50.364179165919275,62.011703236336025,7.099174976348877,-1.1321519613265991,5.977081298828125,1.7299360036849976,-0.9489761590957642,1.0647616386413574
2026-04-02 12:56:40.565,1541.570342359,278480116,right_foot,右脚,D4:22:CD:00:85:22,0.7924720644950867,0.1467168629169464,-0.40623903274536133,0.43061840534210205,-10.600975026934812,-50.37400805520724,62.034701150867775,7.111111164093018,-1.1404197216033936,5.969456195831299,1.623316764831543,-0.987267017364502,1.1351195573806763
2026-04-02 12:56:40.595,1541.600401165,278513450,right_foot,右脚,D4:22:CD:00:85:22,0.7923445701599121,0.14686892926692963,-0.40627923607826233,0.4307633638381958,-10.599010818977897,-50.38600966320697,62.05904614843676,7.101256370544434,-1.1298112869262695,5.974555492401123,1.6669163703918457,-1.059424638748169,1.105517864227295
2026-04-02 12:56:40.626,1541.631304794,278546784,right_foot,右脚,D4:22:CD:00:85:22,0.7922254204750061,0.14700518548488617,-0.406323105096817,0.43089455366134644,-10.598291065080483,-50.3975765566591,62.08188984279603,7.10784387588501,-1.1265032291412354,5.978547096252441,1.611701488494873,-1.0566518306732178,1.0900861024856567
2026-04-02 12:56:40.655,1541.660346529,278580118,right_foot,右脚,D4:22:CD:00:85:22,0.7921117544174194,0.14713744819164276,-0.4063643515110016,0.43101966381073,-10.597246760205776,-50.408690756203825,62.103518908365665,7.106902122497559,-1.1369800567626953,5.9734015464782715,1.6638236045837402,-1.0614479780197144,1.1229281425476074
2026-04-02 12:56:40.685,1541.690173985,278613452,right_foot,右脚,D4:22:CD:00:85:22,0.7919984459877014,0.14728492498397827,-0.40638467669487,0.4311581552028656,-10.59302894232664,-50.41841449236473,62.12496028711492,7.10067081451416,-1.1284266710281372,5.989343166351318,1.7287198305130005,-1.0278314352035522,1.1014262437820435
2026-04-02 12:56:40.746,1541.75112164,278646786,right_foot,右脚,D4:22:CD:00:85:22,0.7918912172317505,0.14741645753383636,-0.40639528632164,0.43130019307136536,-10.589985954750714,-50.42605061541221,62.14674973897319,7.099773406982422,-1.123201847076416,5.983078479766846,1.7180135250091553,-0.9845651388168335,1.12993323802948
2026-04-02 12:56:40.776,1541.781337668,278680120,right_foot,右脚,D4:22:CD:00:85:22,0.79178786277771,0.14754430949687958,-0.4064265489578247,0.43141648173332214,-10.587611693624817,-50.43596997172538,62.16600603381743,7.095736026763916,-1.1466305255889893,5.986230850219727,1.6847939491271973,-1.0636059045791626,1.1029695272445679
2026-04-02 12:56:40.805,1541.810182099,278713454,right_foot,右脚,D4:22:CD:00:85:22,0.7916936874389648,0.1476358026266098,-0.40642985701560974,0.4315551519393921,-10.588456351167675,-50.44032319448664,62.18809996243331,7.10883903503418,-1.1253455877304077,5.966673851013184,1.6805163621902466,-0.9276342391967773,1.2027947902679443
2026-04-02 12:56:40.835,1541.840384097,278746788,right_foot,右脚,D4:22:CD:00:85:22,0.7916125059127808,0.14772911369800568,-0.4064234495162964,0.43167823553085327,-10.586608028262075,-50.44398648098345,62.20631010303697,7.103097915649414,-1.1269843578338623,5.977386951446533,1.7021912336349487,-0.9088026881217957,1.1556098461151123
2026-04-02 12:56:40.895,1541.900223068,278780122,right_foot,右脚,D4:22:CD:00:85:22,0.7915240526199341,0.14782512187957764,-0.4064338207244873,0.4317975640296936,-10.586068036127688,-50.44964005782712,62.22538956740836,7.107904434204102,-1.1316131353378296,5.980992317199707,1.7086328268051147,-0.9873119592666626,1.1775022745132446
2026-04-02 12:56:40.895,1541.900380156,278813456,right_foot,右脚,D4:22:CD:00:85:22,0.7914334535598755,0.14794036746025085,-0.4064598083496094,0.4318995773792267,-10.583448876928223,-50.45839351199131,62.2420327979785,7.112367630004883,-1.1415613889694214,5.967707633972168,1.7047525644302368,-1.081368327140808,1.1028093099594116
2026-04-02 12:56:40.925,1541.93021604,278846790,right_foot,右脚,D4:22:CD:00:85:22,0.7913442254066467,0.14802511036396027,-0.4064939618110657,0.43200185894966125,-10.585633180864827,-50.466045389763686,62.26077757000864,7.107367992401123,-1.1207407712936401,5.97885274887085,1.6290990114212036,-1.0704636573791504,1.1594773530960083
2026-04-02 12:56:40.955,1541.960310124,278880124,right_foot,右脚,D4:22:CD:00:85:22,0.7912561297416687,0.14812542498111725,-0.40653255581855774,0.4320928752422333,-10.585407775258748,-50.475303975325765,62.277236345274865,7.1055707931518555,-1.136801838874817,5.986723899841309,1.6941617727279663,-1.1296802759170532,1.1418110132217407
2026-04-02 12:56:40.985,1541.990316305,278913458,right_foot,右脚,D4:22:CD:00:85:22,0.7911690473556519,0.1482291966676712,-0.40656253695487976,0.4321883022785187,-10.584145746167112,-50.483835502576724,62.293552446647475,7.102255344390869,-1.1304566860198975,5.987259864807129,1.6923367977142334,-1.116835355758667,1.1146551370620728
2026-04-02 12:56:41.046,1542.05136634,278946792,right_foot,右脚,D4:22:CD:00:85:22,0.7911033630371094,0.14830605685710907,-0.4065767824649811,0.43226903676986694,-10.583139183671145,-50.4891782563721,62.30668726268329,7.1109938621521,-1.1356379985809326,5.975119590759277,1.6531429290771484,-1.0319100618362427,1.1024506092071533
2026-04-02 12:56:41.076,1542.081514136,278980126,right_foot,右脚,D4:22:CD:00:85:22,0.7910338044166565,0.14838498830795288,-0.4065951704978943,0.432351678609848,-10.582540555726537,-50.495074491086626,62.32052767190311,7.114221096038818,-1.1266180276870728,5.97983455657959,1.6850180625915527,-1.0661799907684326,1.1313098669052124
2026-04-02 12:56:41.106,1542.111527199,279013460,right_foot,右脚,D4:22:CD:00:85:22,0.79096519947052,0.1484711915254593,-0.4066050946712494,0.4324381947517395,-10.580372724362714,-50.50049531287384,62.33394391406285,7.1186842918396,-1.1324702501296997,5.981524467468262,1.679203987121582,-1.0559157133102417,1.0874929428100586
2026-04-02 12:56:41.135,1542.140596314,279046794,right_foot,右脚,D4:22:CD:00:85:22,0.7909087538719177,0.14853395521640778,-0.4066210985183716,0.4325047731399536,-10.580133712171923,-50.50531567788898,62.34524319567598,7.105289459228516,-1.1231976747512817,5.987487316131592,1.6304051876068115,-1.051919937133789,1.0949076414108276
2026-04-02 12:56:41.166,1542.171484317,279080128,right_foot,右脚,D4:22:CD:00:85:22,0.790866494178772,0.14859424531459808,-0.4066069722175598,0.4325748682022095,-10.576975190369566,-50.50676636451023,62.35430273428026,7.107598781585693,-1.1278877258300781,5.971521377563477,1.7097148895263672,-0.9642412066459656,1.1041666269302368
2026-04-02 12:56:41.196,1542.201370043,279113462,right_foot,右脚,D4:22:CD:00:85:22,0.7908207774162292,0.14865131676197052,-0.40660569071769714,0.4326399564743042,-10.575301464668481,-50.509431069611274,62.3638569695335,7.109196186065674,-1.1291987895965576,5.9927239418029785,1.6620242595672607,-1.0113495588302612,1.0917893648147583
2026-04-02 12:56:41.226,1542.23130283,279146796,right_foot,右脚,D4:22:CD:00:85:22,0.7907624840736389,0.14871472120285034,-0.4066106677055359,0.4327196478843689,-10.574839282529053,-50.512970846050145,62.37648148953232,7.105984210968018,-1.1429533958435059,5.97257137298584,1.711424708366394,-1.0621778964996338,1.1519663333892822
2026-04-02 12:56:41.255,1542.26033531,279180130,right_foot,右脚,D4:22:CD:00:85:22,0.7907147407531738,0.14877499639987946,-0.40660154819488525,0.43279486894607544,-10.572718944887384,-50.51488193203783,62.386992474488224,7.108101844787598,-1.129077672958374,5.961501598358154,1.7260369062423706,-1.0202947854995728,1.1280186176300049
2026-04-02 12:56:41.286,1542.291335705,279213464,right_foot,右脚,D4:22:CD:00:85:22,0.7906709313392639,0.148821622133255,-0.4066050350666046,0.43285584449768066,-10.572551227897739,-50.51742563276301,62.39667368104311,7.106443881988525,-1.1252286434173584,5.981813907623291,1.6878612041473389,-1.0519137382507324,1.1374568939208984
2026-04-02 12:56:41.347,1542.352316642,279246798,right_foot,右脚,D4:22:CD:00:85:22,0.7906295657157898,0.14887230098247528,-0.40659692883491516,0.432921439409256,-10.570929641150663,-50.5189615034623,62.405916619712706,7.097297191619873,-1.1302623748779297,5.985539436340332,1.719115138053894,-1.0329219102859497,1.1305094957351685
2026-04-02 12:56:41.375,1542.38028195,279280132,right_foot,右脚,D4:22:CD:00:85:22,0.7905960083007812,0.1488836407661438,-0.40658000111579895,0.4329949617385864,-10.573876905278773,-50.51693324257289,62.41733435364354,7.1128010749816895,-1.1318235397338867,5.966353416442871,1.6618767976760864,-0.9517614841461182,1.2113813161849976
2026-04-02 12:56:41.406,1542.411488203,279313466,right_foot,右脚,D4:22:CD:00:85:22,0.7905849814414978,0.148885577917099,-0.40654146671295166,0.4330504834651947,-10.573923948373446,-50.512283600154625,62.42369549205204,7.109734058380127,-1.130834698677063,5.982787609100342,1.6337604522705078,-0.8667402267456055,1.1296192407608032
2026-04-02 12:56:41.436,1542.441377789,279346800,right_foot,右脚,D4:22:CD:00:85:22,0.7905662655830383,0.14890746772289276,-0.4065195918083191,0.43309760093688965,-10.572695295301108,-50.510772118294014,62.42933757831291,7.108419418334961,-1.1352801322937012,5.982341289520264,1.7179207801818848,-0.9770669937133789,1.1456305980682373
2026-04-02 12:56:41.466,1542.471280341,279380134,right_foot,右脚,D4:22:CD:00:85:22,0.7905474305152893,0.14894670248031616,-0.40651029348373413,0.43312719464302063,-10.569252200124438,-50.5119254062185,62.43228246119834,7.096806526184082,-1.1270198822021484,5.974881172180176,1.734245777130127,-1.0584193468093872,1.0875825881958008
2026-04-02 12:56:41.496,1542.501321853,279413468,right_foot,右脚,D4:22:CD:00:85:22,0.7905173301696777,0.14898091554641724,-0.4065153896808624,0.4331652522087097,-10.568865524466807,-50.51415831414094,62.43843238921497,7.096256256103516,-1.1265387535095215,5.9726338386535645,1.726594090461731,-1.1125069856643677,1.1462676525115967
2026-04-02 12:56:41.526,1542.531365134,279446802,right_foot,右脚,D4:22:CD:00:85:22,0.7905097007751465,0.14900793135166168,-0.4065018892288208,0.43318310379981995,-10.565428579388128,-50.514231168776185,62.439264594730595,7.110068321228027,-1.1242204904556274,5.978704929351807,1.6998478174209595,-1.0411691665649414,1.0600169897079468
2026-04-02 12:56:41.556,1542.561296355,279480136,right_foot,右脚,D4:22:CD:00:85:22,0.7904976010322571,0.1490122377872467,-0.40649956464767456,0.4332055151462555,-10.566565647316896,-50.513973855141984,62.44301322420509,7.096287727355957,-1.1368529796600342,5.980597972869873,1.634451985359192,-1.0521312952041626,1.1182153224945068
2026-04-02 12:56:41.585,1542.59020017,279513470,right_foot,右脚,D4:22:CD:00:85:22,0.7904914021492004,0.14900356531143188,-0.40650466084480286,0.4332153797149658,-10.56909166819675,-50.51381234996224,62.44567305550364,7.105014801025391,-1.1327087879180908,5.970374584197998,1.6363221406936646,-1.07167387008667,1.1488161087036133
2026-04-02 12:56:41.675,1542.680313509,279546804,right_foot,右脚,D4:22:CD:00:85:22,0.7904945611953735,0.1489812135696411,-0.4065018892288208,0.43321943283081055,-10.571929473815278,-50.51204118339572,62.44707964058485,7.1043701171875,-1.1249819993972778,5.970134735107422,1.6306228637695312,-1.032454252243042,1.1574218273162842
2026-04-02 12:56:41.675,1542.680399145,279580138,right_foot,右脚,D4:22:CD:00:85:22,0.7905062437057495,0.1489589810371399,-0.4064924120903015,0.43321478366851807,-10.57319669054977,-50.50967874208214,62.44618267567005,7.097599029541016,-1.1268444061279297,5.9942708015441895,1.6264032125473022,-1.0163246393203735,1.1167807579040527
2026-04-02 12:56:41.706,1542.711218158,279613472,right_foot,右脚,D4:22:CD:00:85:22,0.7905075550079346,0.14895261824131012,-0.4064808785915375,0.43322545289993286,-10.573562732790128,-50.50791848407658,62.447267025445,7.108648300170898,-1.1326438188552856,5.990235805511475,1.6551984548568726,-1.0444347858428955,1.113252878189087
2026-04-02 12:56:41.735,1542.740426673,279646806,right_foot,右脚,D4:22:CD:00:85:22,0.7905188798904419,0.14894384145736694,-0.40645816922187805,0.4332290589809418,-10.572313900013707,-50.504928230326584,62.44604655617568,7.103772163391113,-1.130373239517212,5.977092266082764,1.6812400817871094,-1.0140964984893799,1.0988200902938843
2026-04-02 12:56:41.766,1542.771510709,279680140,right_foot,右脚,D4:22:CD:00:85:22,0.790529727935791,0.1489335000514984,-0.4064297378063202,0.43323975801467896,-10.571194720295702,-50.501137210305004,62.44561716911941,7.100642204284668,-1.1401152610778809,5.9786152839660645,1.712986946105957,-1.003902554512024,1.129862666130066
2026-04-02 12:56:41.796,1542.801568617,279713474,right_foot,右脚,D4:22:CD:00:85:22,0.7905380725860596,0.14892397820949554,-0.40641018748283386,0.43324586749076843,-10.570632455432383,-50.498401330198796,62.44521267456592,7.0970139503479,-1.1243306398391724,5.963701248168945,1.6952439546585083,-1.0423729419708252,1.1196496486663818
2026-04-02 12:56:41.826,1542.831388093,279746808,right_foot,右脚,D4:22:CD:00:85:22,0.7905462384223938,0.14891301095485687,-0.4063839018344879,0.43325936794281006,-10.570093748393173,-50.49476359543316,62.44555242196194,7.097067832946777,-1.1350034475326538,5.965958595275879,1.6981316804885864,-1.0232658386230469,1.125802993774414
2026-04-02 12:56:41.856,1542.861546857,279780142,right_foot,右脚,D4:22:CD:00:85:22,0.7905595302581787,0.1489037722349167,-0.40634915232658386,0.43327102065086365,-10.568183135286985,-50.490371470509785,62.44463675164126,7.108224391937256,-1.1294792890548706,5.973440647125244,1.7349756956100464,-1.0066561698913574,1.1236069202423096
2026-04-02 12:56:41.886,1542.89154715,279813476,right_foot,右脚,D4:22:CD:00:85:22,0.7905925512313843,0.14886954426765442,-0.40632951259613037,0.43324097990989685,-10.567571567523663,-50.486513217837675,62.43854534856357,7.105399131774902,-1.122365951538086,5.994014263153076,1.6817715167999268,-1.0267236232757568,1.1079127788543701
2026-04-02 12:56:41.946,1542.951505879,279846810,right_foot,右脚,D4:22:CD:00:85:22,0.7906191349029541,0.1488393247127533,-0.40631696581840515,0.43321436643600464,-10.567593715335676,-50.4836159185214,62.43363857145656,7.107396602630615,-1.1411428451538086,5.983354091644287,1.67643141746521,-1.0654499530792236,1.112196445465088
2026-04-02 12:56:41.975,1542.980512022,279880144,right_foot,右脚,D4:22:CD:00:85:22,0.7906656861305237,0.14877359569072723,-0.40625786781311035,0.43320751190185547,-10.568308368201087,-50.47329048467774,62.42920548980708,7.105828762054443,-1.1147487163543701,5.982938766479492,1.6623121500015259,-0.8531910181045532,1.1560451984405518
2026-04-02 12:56:42.006,1543.011381152,279913478,right_foot,右脚,D4:22:CD:00:85:22,0.7907184362411499,0.14871729910373688,-0.40621456503868103,0.4331713318824768,-10.567159661393687,-50.465614825931716,62.42054027082215,7.112491607666016,-1.1321831941604614,5.971935749053955,1.6876689195632935,-0.9329041838645935,1.1165248155593872
2026-04-02 12:56:42.036,1543.041390917,279946812,right_foot,右脚,D4:22:CD:00:85:22,0.7907503247261047,0.14869408309459686,-0.40619346499443054,0.43314090371131897,-10.564970333240428,-50.46231666900748,62.4137907538326,7.111526012420654,-1.1222193241119385,5.987517356872559,1.7208245992660522,-1.0663849115371704,1.0924745798110962
2026-04-02 12:56:42.065,1543.070335377,279980146,right_foot,右脚,D4:22:CD:00:85:22,0.7907853722572327,0.1486641764640808,-0.4061865210533142,0.43309369683265686,-10.563828088515047,-50.46029559218974,62.40561900503527,7.110429763793945,-1.1243512630462646,5.989327907562256,1.7015446424484253,-1.1123852729797363,1.094619631767273
2026-04-02 12:56:42.095,1543.100398011,280013480,right_foot,右脚,D4:22:CD:00:85:22,0.7908082008361816,0.14861316978931427,-0.40617987513542175,0.43307578563690186,-10.567889123255618,-50.45656127312121,62.403733787686086,7.097168445587158,-1.1247681379318237,5.982760429382324,1.6520096063613892,-1.083910346031189,1.190142273902893
2026-04-02 12:56:42.126,1543.131543248,280046814,right_foot,右脚,D4:22:CD:00:85:22,0.7908414602279663,0.14856846630573273,-0.4061805307865143,0.4330298602581024,-10.569597223530506,-50.45436825122777,62.397146763805196,7.099526882171631,-1.1288375854492188,5.955783843994141,1.6597381830215454,-1.124807357788086,1.1291455030441284
2026-04-02 12:56:42.156,1543.161335283,280080148,right_foot,右脚,D4:22:CD:00:85:22,0.7908700108528137,0.14853106439113617,-0.406171590089798,0.4329986870288849,-10.57055189692599,-50.45144936657636,62.39205249884487,7.100697040557861,-1.1221164464950562,5.980553150177002,1.6990731954574585,-1.109241247177124,1.1454674005508423
2026-04-02 12:56:42.185,1543.190303554,280113482,right_foot,右脚,D4:22:CD:00:85:22,0.7909035682678223,0.1484774351119995,-0.40615883469581604,0.4329677224159241,-10.573104152254453,-50.447082113808555,62.38727015108484,7.092152118682861,-1.127165675163269,5.971950531005859,1.6469703912734985,-1.0706942081451416,1.1494436264038086
2026-04-02 12:56:42.246,1543.251330919,280146816,right_foot,右脚,D4:22:CD:00:85:22,0.7909519672393799,0.14841040968894958,-0.4061509668827057,0.4329099655151367,-10.575586076525818,-50.44271721776469,62.37856224386973,7.1122612953186035,-1.1252291202545166,5.9743828773498535,1.6031789779663086,-1.0682544708251953,1.1114470958709717
2026-04-02 12:56:42.276,1543.281199217,280180150,right_foot,右脚,D4:22:CD:00:85:22,0.7910128235816956,0.1483408361673355,-0.40612801909446716,0.43284404277801514,-10.575934065472975,-50.43672576596666,62.36698878828189,7.105975151062012,-1.1266472339630127,5.972427845001221,1.6287789344787598,-1.0173301696777344,1.088338017463684
2026-04-02 12:56:42.306,1543.311463568,280213484,right_foot,右脚,D4:22:CD:00:85:22,0.7910677194595337,0.1482648402452469,-0.4061015844345093,0.43279433250427246,-10.57808178901738,-50.42974441799296,62.358328264540354,7.111355304718018,-1.1321446895599365,5.984516620635986,1.6426161527633667,-1.002103328704834,1.1483869552612305
2026-04-02 12:56:42.336,1543.341547785,280246818,right_foot,右脚,D4:22:CD:00:85:22,0.7911251783370972,0.1482020914554596,-0.4060746431350708,0.4327363073825836,-10.577784931624866,-50.42366190379568,62.347527501523075,7.10123872756958,-1.130178451538086,5.984382629394531,1.6568630933761597,-1.0234578847885132,1.0937999486923218
2026-04-02 12:56:42.366,1543.37150175,280280152,right_foot,右脚,D4:22:CD:00:85:22,0.7911741137504578,0.14813636243343353,-0.40605589747428894,0.4326866865158081,-10.579558030901548,-50.41814566285947,62.33922886462923,7.107098579406738,-1.13729727268219,5.978703022003174,1.6351691484451294,-1.0499030351638794,1.1219227313995361
2026-04-02 12:56:42.396,1543.401123271,280313486,right_foot,右脚,D4:22:CD:00:85:22,0.7912257313728333,0.14806818962097168,-0.40604227781295776,0.4326286017894745,-10.581495907394052,-50.413114326806394,62.32995605024332,7.094207763671875,-1.1319679021835327,5.980246067047119,1.653917908668518,-1.0707839727401733,1.1371879577636719
2026-04-02 12:56:42.425,1543.430448147,280346820,right_foot,右脚,D4:22:CD:00:85:22,0.7912720441818237,0.14799067378044128,-0.406011700630188,0.43259891867637634,-10.585081657309198,-50.40533729154581,62.3246440782067,7.109342098236084,-1.134247064590454,5.971795082092285,1.6657508611679077,-1.0022505521774292,1.201014757156372
2026-04-02 12:56:42.456,1543.461590658,280380154,right_foot,右脚,D4:22:CD:00:85:22,0.791336715221405,0.14789237082004547,-0.40599700808525085,0.432528018951416,-10.589572589074342,-50.398437526654206,62.314145480155794,7.0943708419799805,-1.137154459953308,5.9853010177612305,1.6290351152420044,-1.0286316871643066,1.1870431900024414
2026-04-02 12:56:42.486,1543.491511555,280413488,right_foot,右脚,D4:22:CD:00:85:22,0.7914136648178101,0.14779464900493622,-0.405952513217926,0.4324626922607422,-10.590988117163922,-50.388372371189554,62.30170594038873,7.101326942443848,-1.1265568733215332,5.9724273681640625,1.606213927268982,-0.9210454821586609,1.109756588935852
2026-04-02 12:56:42.546,1543.5515144,280446822,right_foot,右脚,D4:22:CD:00:85:22,0.7914831042289734,0.1476937234401703,-0.40591493248939514,0.43240511417388916,-10.594296939845291,-50.378735736856214,62.29153347009882,7.110487937927246,-1.1280229091644287,5.958711624145508,1.6237651109695435,-0.9465622305870056,1.1676926612854004
2026-04-02 12:56:42.576,1543.581498606,280480156,right_foot,右脚,D4:22:CD:00:85:22,0.7915505170822144,0.14760945737361908,-0.405876487493515,0.4323466122150421,-10.595335514380793,-50.37008383820681,62.2804182095403,7.103303909301758,-1.132926344871521,5.976590156555176,1.6502102613449097,-0.9701834321022034,1.1279162168502808
2026-04-02 12:56:42.635,1543.640212523,280513490,right_foot,右脚,D4:22:CD:00:85:22,0.7916132211685181,0.147531658411026,-0.4058590233325958,0.43227478861808777,-10.596868188825082,-50.36422376121565,62.26865424249708,7.100226402282715,-1.1352121829986572,5.974050045013428,1.6629400253295898,-1.05781090259552,1.1337623596191406
2026-04-02 12:56:42.635,1543.640317734,280546824,right_foot,右脚,D4:22:CD:00:85:22,0.7916700839996338,0.14747126400470734,-0.40583986043930054,0.432209312915802,-10.596571311618646,-50.359216308912025,62.25718461701625,7.107863426208496,-1.1438261270523071,5.975379943847656,1.7176870107650757,-1.0844738483428955,1.1278841495513916
2026-04-02 12:56:42.666,1543.671540356,280580158,right_foot,右脚,D4:22:CD:00:85:22,0.7917267084121704,0.1473969668149948,-0.40583059191703796,0.4321397542953491,-10.598817182530437,-50.354409456428506,62.24650065401849,7.0924458503723145,-1.1329799890518188,5.977475643157959,1.6646751165390015,-1.0947829484939575,1.1443402767181396
2026-04-02 12:56:42.696,1543.701472614,280613492,right_foot,右脚,D4:22:CD:00:85:22,0.791768491268158,0.14733871817588806,-0.40582016110420227,0.4320926070213318,-10.600854842599725,-50.3502183999196,62.239190445430445,7.105350494384766,-1.1305969953536987,5.987914562225342,1.6908448934555054,-1.118116021156311,1.156262993812561
2026-04-02 12:56:42.726,1543.731152943,280646826,right_foot,右脚,D4:22:CD:00:85:22,0.7918252348899841,0.1472679227590561,-0.40580958127975464,0.43202298879623413,-10.602503213212927,-50.345497131018234,62.22821989687153,7.104370594024658,-1.137344241142273,5.9728569984436035,1.67900550365448,-1.1006674766540527,1.140184760093689
2026-04-02 12:56:42.786,1543.79119834,280680160,right_foot,右脚,D4:22:CD:00:85:22,0.7918979525566101,0.14716656506061554,-0.4057844281196594,0.4319474697113037,-10.60579771008145,-50.33738474577142,62.21601499865819,7.107181072235107,-1.1297626495361328,5.981513977050781,1.62204909324646,-1.0000863075256348,1.152241587638855
2026-04-02 12:56:42.786,1543.791304587,280713494,right_foot,右脚,D4:22:CD:00:85:22,0.7919876575469971,0.1470670849084854,-0.4057517945766449,0.43184760212898254,-10.605889851373622,-50.328924623199384,62.19850784384441,7.103579521179199,-1.1347112655639648,5.973870754241943,1.6403555870056152,-0.9786548018455505,1.090611219406128
2026-04-02 12:56:42.846,1543.851424051,280746828,right_foot,右脚,D4:22:CD:00:85:22,0.7920591235160828,0.14697524905204773,-0.40570664405822754,0.4317902624607086,-10.60722113295657,-50.31907667680513,62.187282979957295,7.10254430770874,-1.1238800287246704,5.983432292938232,1.6849478483200073,-0.9508523941040039,1.164612889289856
2026-04-02 12:56:42.906,1543.911635194,280780162,right_foot,右脚,D4:22:CD:00:85:22,0.7921283841133118,0.14689628779888153,-0.40567946434020996,0.431715726852417,-10.607557855644925,-50.31216531895367,62.17413684816794,7.098654747009277,-1.1351728439331055,5.985436916351318,1.6754132509231567,-1.0326145887374878,1.116966724395752
2026-04-02 12:56:42.906,1543.911718656,280813496,right_foot,右脚,D4:22:CD:00:85:22,0.7922044396400452,0.14681218564510345,-0.40564340353012085,0.43163859844207764,-10.607293069779967,-50.304032761866964,62.159866839002646,7.102006912231445,-1.1335943937301636,5.9834771156311035,1.6744846105575562,-0.9949252605438232,1.1075667142868042
2026-04-02 12:56:42.936,1543.941575939,280846830,right_foot,右脚,D4:22:CD:00:85:22,0.7922868728637695,0.14671240746974945,-0.4056120216846466,0.4315505027770996,-10.608604156658648,-50.2955383491482,62.144690873990484,7.102287769317627,-1.1277835369110107,5.985189914703369,1.6687060594558716,-0.9912756085395813,1.1437608003616333
2026-04-02 12:56:42.966,1543.971301009,280880164,right_foot,右脚,D4:22:CD:00:85:22,0.7923710942268372,0.14662326872348785,-0.4055835008621216,0.4314531981945038,-10.608119618007839,-50.28813932764962,62.12765532194655,7.1058349609375,-1.1238102912902832,5.96942663192749,1.640823245048523,-1.0115480422973633,1.0714017152786255
2026-04-02 12:56:42.996,1544.001630821,280913498,right_foot,右脚,D4:22:CD:00:85:22,0.7924352884292603,0.146541029214859,-0.40559205412864685,0.43135517835617065,-10.611023917706461,-50.28508524662543,62.11384962178181,7.099517345428467,-1.1070361137390137,5.9837117195129395,1.607917308807373,-1.149574875831604,1.1049031019210815
2026-04-02 12:56:43.027,1544.032329005,280946832,right_foot,右脚,D4:22:CD:00:85:22,0.7924978733062744,0.14645765721797943,-0.40555882453918457,0.4312995970249176,-10.612859001470436,-50.277015501022554,62.103803545629134,7.108336448669434,-1.1270713806152344,5.980447769165039,1.6844449043273926,-1.0092045068740845,1.1708719730377197
2026-04-02 12:56:43.056,1544.061622263,280980166,right_foot,右脚,D4:22:CD:00:85:22,0.7925922870635986,0.14632011950016022,-0.40550562739372253,0.43122291564941406,-10.617352889522985,-50.26366753034557,62.09013063015663,7.109102725982666,-1.1315611600875854,5.983452796936035,1.5762985944747925,-0.8491954803466797,1.1774767637252808
2026-04-02 12:56:43.086,1544.091454816,281013500,right_foot,右脚,D4:22:CD:00:85:22,0.792677640914917,0.14619377255439758,-0.4054744243621826,0.43113839626312256,-10.622329294422272,-50.253446692675304,62.07671519062866,7.102999210357666,-1.1410685777664185,5.965644359588623,1.5973392724990845,-0.9464853405952454,1.189674735069275
2026-04-02 12:56:43.146,1544.151635368,281046834,right_foot,右脚,D4:22:CD:00:85:22,0.7927587628364563,0.146103173494339,-0.40544164180755615,0.4310503304004669,-10.62236587030667,-50.245404619731886,62.061075711871474,7.112807273864746,-1.1392555236816406,5.963407516479492,1.6939058303833008,-1.0009828805923462,1.1341593265533447
2026-04-02 12:56:43.176,1544.181708956,281080168,right_foot,右脚,D4:22:CD:00:85:22,0.7928410172462463,0.14602527022361755,-0.40542396903038025,0.4309423267841339,-10.620845118258828,-50.24001050232983,62.042708741646514,7.101332664489746,-1.1257047653198242,5.978468894958496,1.6814066171646118,-1.0681328773498535,1.0707870721817017
2026-04-02 12:56:43.205,1544.210328341,281113502,right_foot,右脚,D4:22:CD:00:85:22,0.7929190993309021,0.14593441784381866,-0.4054158926010132,0.43083706498146057,-10.622302386722378,-50.23476584309654,62.02632404247958,7.1062750816345215,-1.120607614517212,5.980502128601074,1.6761687994003296,-1.0851653814315796,1.1397939920425415
2026-04-02 12:56:43.236,1544.241561039,281146836,right_foot,右脚,D4:22:CD:00:85:22,0.792999267578125,0.1458543837070465,-0.40540727972984314,0.4307243824005127,-10.621723360886005,-50.23026258416298,62.00810836763516,7.102721691131592,-1.1382638216018677,5.971269130706787,1.6486095190048218,-1.0931116342544556,1.0641597509384155
2026-04-02 12:56:43.296,1544.301578775,281180170,right_foot,右脚,D4:22:CD:00:85:22,0.7930677533149719,0.1457642912864685,-0.40538597106933594,0.43064913153648376,-10.624114935153028,-50.22327582605437,61.995898880601246,7.096104621887207,-1.1311581134796143,5.986079216003418,1.6462469100952148,-1.0322751998901367,1.1483230590820312
2026-04-02 12:56:43.296,1544.301726303,281213504,right_foot,右脚,D4:22:CD:00:85:22,0.7931422591209412,0.14565522968769073,-0.40536099672317505,0.4305722415447235,-10.628332724737373,-50.21472514612924,61.98382661990215,7.101236343383789,-1.1313449144363403,5.974576950073242,1.6345545053482056,-0.9924216866493225,1.1923896074295044
2026-04-02 12:56:43.325,1544.330319105,281246838,right_foot,右脚,D4:22:CD:00:85:22,0.7932144999504089,0.14555777609348297,-0.4053398370742798,0.43049195408821106,-10.631251511523306,-50.20736181616813,61.97103431994147,7.095983505249023,-1.1339918375015259,5.980624198913574,1.6584898233413696,-1.024648904800415,1.1739485263824463
2026-04-02 12:56:43.356,1544.361155168,281280172,right_foot,右脚,D4:22:CD:00:85:22,0.7933117747306824,0.1454458087682724,-0.40532544255256653,0.4303642213344574,-10.632725648033961,-50.20041276101849,61.95079732578602,7.110589027404785,-1.1386438608169556,5.987414836883545,1.6380186080932617,-1.026826024055481,1.1201043128967285
2026-04-02 12:56:43.416,1544.42165774,281313506,right_foot,右脚,D4:22:CD:00:85:22,0.793380856513977,0.14536306262016296,-0.4052935242652893,0.4302947521209717,-10.633490090208829,-50.19271766943415,61.93835121263089,7.108399868011475,-1.1304199695587158,5.984716892242432,1.683487892150879,-1.0071170330047607,1.142874002456665
2026-04-02 12:56:43.445,1544.450378935,281346840,right_foot,右脚,D4:22:CD:00:85:22,0.7934468388557434,0.14527347683906555,-0.4052816331386566,0.43021467328071594,-10.636517220391227,-50.186825660254094,61.92618017049025,7.1085920333862305,-1.1265357732772827,5.980118274688721,1.619615912437439,-1.0604747533798218,1.1374311447143555
2026-04-02 12:56:43.476,1544.481591998,281380174,right_foot,右脚,D4:22:CD:00:85:22,0.7935230135917664,0.14519110321998596,-0.4052712023258209,0.43011200428009033,-10.636887429747052,-50.18184740301383,61.90972235569381,7.104456424713135,-1.1456347703933716,5.986385345458984,1.6572219133377075,-1.0800492763519287,1.0984359979629517
2026-04-02 12:56:43.506,1544.511626866,281413508,right_foot,右脚,D4:22:CD:00:85:22,0.7935895323753357,0.1451055109500885,-0.4052504003047943,0.43003734946250916,-10.638868520124825,-50.17521539487483,61.89754809214148,7.112874984741211,-1.1446621417999268,5.975147247314453,1.6827832460403442,-1.0411242246627808,1.167186975479126
2026-04-02 12:56:43.536,1544.541430459,281446842,right_foot,右脚,D4:22:CD:00:85:22,0.7936618328094482,0.14502450823783875,-0.40520596504211426,0.4299730956554413,-10.638424491318904,-50.16624956330746,61.884778311108136,7.0985517501831055,-1.1403393745422363,5.98095178604126,1.696966290473938,-0.9620066285133362,1.1316108703613281
2026-04-02 12:56:43.566,1544.571532566,281480176,right_foot,右脚,D4:22:CD:00:85:22,0.7937377691268921,0.1449173241853714,-0.4051755666732788,0.4298979341983795,-10.641949966001324,-50.15723174479251,61.87243646433757,7.109623908996582,-1.11712646484375,5.9829421043396,1.654494285583496,-0.9714130163192749,1.195162296295166
2026-04-02 12:56:43.596,1544.601600443,281513510,right_foot,右脚,D4:22:CD:00:85:22,0.7937999367713928,0.14481225609779358,-0.4051637351512909,0.42982953786849976,-10.647941008240933,-50.150216822727636,61.863070806721915,7.104313850402832,-1.129488229751587,5.975505828857422,1.6395426988601685,-1.0383198261260986,1.2340937852859497
2026-04-02 12:56:43.626,1544.631570372,281546844,right_foot,右脚,D4:22:CD:00:85:22,0.7938820719718933,0.14467878639698029,-0.4051220118999481,0.4297622740268707,-10.654134277539901,-50.13823667514639,61.852156661347784,7.114115238189697,-1.1360691785812378,5.976630210876465,1.5967117547988892,-0.884854793548584,1.2325118780136108
2026-04-02 12:56:43.656,1544.661413605,281580178,right_foot,右脚,D4:22:CD:00:85:22,0.7939709424972534,0.14455778896808624,-0.40507349371910095,0.4296845495700836,-10.657102264761923,-50.126481563557306,61.83817454274045,7.103544235229492,-1.1460137367248535,5.974404335021973,1.6070784330368042,-0.8764026165008545,1.160226583480835
2026-04-02 12:56:43.686,1544.691407031,281613512,right_foot,右脚,D4:22:CD:00:85:22,0.7940332293510437,0.1444888859987259,-0.4050423204898834,0.42962178587913513,-10.656822768526618,-50.119667717389454,61.82650081776115,7.093131065368652,-1.134455680847168,5.978486061096191,1.6853830814361572,-1.0173814296722412,1.1161279678344727
2026-04-02 12:56:43.745,1544.750435549,281646846,right_foot,右脚,D4:22:CD:00:85:22,0.7941058278083801,0.1444598287343979,-0.40500664710998535,0.4295309782028198,-10.648650301283755,-50.11528590534221,61.80763491910929,7.09420108795166,-1.1336491107940674,5.981991767883301,1.8013638257980347,-1.0693880319595337,1.00437331199646
2026-04-02 12:56:43.775,1544.780430293,281680180,right_foot,右脚,D4:22:CD:00:85:22,0.7941673994064331,0.1444077044725418,-0.40499207377433777,0.4294484257698059,-10.646500037654151,-50.11154140420829,61.79326444440814,7.096017837524414,-1.127406358718872,5.985833644866943,1.6892504692077637,-1.0979397296905518,1.0576220750808716
2026-04-02 12:56:43.805,1544.810481043,281713514,right_foot,右脚,D4:22:CD:00:85:22,0.7942425608634949,0.14432759582996368,-0.4049944579601288,0.42933419346809387,-10.647121469362519,-50.10821979693972,61.775889585241934,7.101336479187012,-1.133396863937378,5.979614734649658,1.6954106092453003,-1.1237894296646118,1.1300548315048218
2026-04-02 12:56:43.836,1544.841490397,281746848,right_foot,右脚,D4:22:CD:00:85:22,0.7943097949028015,0.1442517787218094,-0.4050094485282898,0.4292212724685669,-10.64876831204191,-50.10647791933169,61.7598014861713,7.1031365394592285,-1.1287239789962769,5.993916988372803,1.6535016298294067,-1.1672477722167969,1.1124205589294434
2026-04-02 12:56:43.866,1544.871576113,281780182,right_foot,右脚,D4:22:CD:00:85:22,0.794380784034729,0.1441609114408493,-0.4049946963787079,0.4291342496871948,-10.6510857689734,-50.100316583988906,61.74619356354434,7.105679988861084,-1.1329162120819092,5.971816539764404,1.6755156517028809,-1.0423409938812256,1.172347903251648
2026-04-02 12:56:43.895,1544.900432035,281813516,right_foot,右脚,D4:22:CD:00:85:22,0.794463574886322,0.1440606266260147,-0.40497109293937683,0.4290369153022766,-10.652693765820407,-50.09276473362112,61.730231368979354,7.103784084320068,-1.1324628591537476,5.98047399520874,1.6233617067337036,-0.9883813261985779,1.1200529336929321
2026-04-02 12:56:43.956,1544.961329259,281846850,right_foot,右脚,D4:22:CD:00:85:22,0.7945287823677063,0.14397859573364258,-0.4049525558948517,0.4289611876010895,-10.654430443002251,-50.08661749097284,61.717962730585,7.104111194610596,-1.1329667568206787,5.980888843536377,1.6694519519805908,-1.0361617803573608,1.1538106203079224
2026-04-02 12:56:43.956,1544.96145106,281880184,right_foot,右脚,D4:22:CD:00:85:22,0.794610321521759,0.14390675723552704,-0.40491971373558044,0.4288654625415802,-10.651549411075813,-50.07987805455245,61.700237800604505,7.105151653289795,-1.1419260501861572,5.985622406005859,1.6798890829086304,-0.9972881078720093,1.0519360303878784
2026-04-02 12:56:44.016,1545.021166903,281913518,right_foot,右脚,D4:22:CD:00:85:22,0.7946935892105103,0.14380209147930145,-0.4049038290977478,0.4287610948085785,-10.654015449469458,-50.072959728734304,61.68393901864396,7.111129283905029,-1.1304584741592407,5.978450775146484,1.617803692817688,-1.0058300495147705,1.1344857215881348
2026-04-02 12:56:44.046,1545.051494409,281946852,right_foot,右脚,D4:22:CD:00:85:22,0.7947707176208496,0.14372505247592926,-0.4048832058906555,0.4286634027957916,-10.653038952045286,-50.06720652179204,61.667269709010505,7.103061676025391,-1.1323471069335938,5.975102424621582,1.688597321510315,-1.0334149599075317,1.1012598276138306
2026-04-02 12:56:44.076,1545.081484029,281980186,right_foot,右脚,D4:22:CD:00:85:22,0.7948403358459473,0.14365504682064056,-0.40487122535705566,0.4285692274570465,-10.652469308135679,-50.06275838775843,61.651785585635196,7.10697078704834,-1.1283286809921265,5.982224941253662,1.6962813138961792,-1.0736204385757446,1.1115241050720215
2026-04-02 12:56:44.135,1545.140243318,282013520,right_foot,右脚,D4:22:CD:00:85:22,0.7948964238166809,0.14359475672245026,-0.40484315156936646,0.42851167917251587,-10.651947285558876,-50.05675569261947,61.64105422104568,7.10518217086792,-1.1239304542541504,5.9827494621276855,1.7103683948516846,-1.0280876159667969,1.1326929330825806
2026-04-02 12:56:44.135,1545.140320986,282046854,right_foot,右脚,D4:22:CD:00:85:22,0.794971227645874,0.14351792633533478,-0.40480947494506836,0.4284307658672333,-10.650868520679992,-50.04941614173196,61.62617363520221,7.1008100509643555,-1.1281154155731201,5.996128559112549,1.7246090173721313,-0.9876450300216675,1.1404216289520264
2026-04-02 12:56:44.166,1545.171615436,282080188,right_foot,右脚,D4:22:CD:00:85:22,0.7950338125228882,0.14342817664146423,-0.40480396151542664,0.42834973335266113,-10.654645385201935,-50.04422852446202,61.61454185989665,7.0983405113220215,-1.1377415657043457,5.997585296630859,1.6074305772781372,-1.0547758340835571,1.151972770690918
2026-04-02 12:56:44.196,1545.201210726,282113522,right_foot,右脚,D4:22:CD:00:85:22,0.7950953245162964,0.1433257758617401,-0.4047869145870209,0.4282858371734619,-10.66013631838429,-50.03679880445784,61.60544021482426,7.106325149536133,-1.1362229585647583,5.971342086791992,1.574486255645752,-0.9906544089317322,1.179986596107483
2026-04-02 12:56:44.225,1545.230301272,282146856,right_foot,右脚,D4:22:CD:00:85:22,0.7951738834381104,0.14322075247764587,-0.40473389625549316,0.4282253086566925,-10.662116568519052,-50.02537552252909,61.59358677144608,7.102171421051025,-1.1431071758270264,5.983916282653809,1.6745103597640991,-0.8702811598777771,1.198607087135315
2026-04-02 12:56:44.256,1545.261569534,282180190,right_foot,右脚,D4:22:CD:00:85:22,0.7952669858932495,0.14312142133712769,-0.404701292514801,0.4281163513660431,-10.661640986714234,-50.01710845104086,61.57465370143713,7.103254318237305,-1.1403934955596924,5.980090618133545,1.6813486814498901,-0.9516463279724121,1.126180648803711
2026-04-02 12:56:44.285,1545.290400925,282213524,right_foot,右脚,D4:22:CD:00:85:22,0.7953230738639832,0.1430608481168747,-0.40468981862068176,0.42804327607154846,-10.661754643046935,-50.013038361381966,61.56270885164407,7.102148532867432,-1.132544994354248,5.984856605529785,1.6971583366394043,-1.0788711309432983,1.129510760307312
2026-04-02 12:56:44.346,1545.351426791,282246858,right_foot,右脚,D4:22:CD:00:85:22,0.7954075932502747,0.14298701286315918,-0.404677152633667,0.4279230833053589,-10.659415793592855,-50.00862764970055,61.54260077631478,7.109495162963867,-1.133737325668335,5.977776050567627,1.6645917892456055,-1.0510427951812744,1.0451421737670898
2026-04-02 12:56:44.376,1545.381488384,282280192,right_foot,右脚,D4:22:CD:00:85:22,0.7954584360122681,0.14292530715465546,-0.4046790301799774,0.4278471767902374,-10.660972449519065,-50.0059334947122,61.53148936082581,7.094620227813721,-1.1310471296310425,5.975715160369873,1.69275963306427,-1.1220731735229492,1.155104160308838
2026-04-02 12:56:44.406,1545.411705129,282313526,right_foot,右脚,D4:22:CD:00:85:22,0.7955116033554077,0.14285102486610413,-0.4046840965747833,0.4277682602405548,-10.664214893655288,-50.00281613021474,61.520645584212716,7.097322940826416,-1.1261813640594482,6.0063042640686035,1.6795369386672974,-1.1142997741699219,1.189322590827942
2026-04-02 12:56:44.436,1545.441491403,282346860,right_foot,右脚,D4:22:CD:00:85:22,0.7955856323242188,0.14278928935527802,-0.40470191836357117,0.42763441801071167,-10.662705595952609,-50.002563565351885,61.5005050210967,7.107072353363037,-1.1389219760894775,5.982030868530273,1.7303780317306519,-1.1843953132629395,1.0998766422271729
2026-04-02 12:56:44.467,1545.472352701,282380194,right_foot,右脚,D4:22:CD:00:85:22,0.7956420183181763,0.14272986352443695,-0.4047031104564667,0.4275481104850769,-10.66302210901722,-50.00008025273028,61.48734055416239,7.107303619384766,-1.1266213655471802,5.979674339294434,1.7320047616958618,-1.1256591081619263,1.1580750942230225
2026-04-02 12:56:44.496,1545.501391726,282413528,right_foot,右脚,D4:22:CD:00:85:22,0.7956998348236084,0.14267539978027344,-0.4046846330165863,0.42747607827186584,-10.661673157310506,-49.9956530010498,61.47468357066374,7.111215114593506,-1.1186182498931885,5.969536781311035,1.6987016201019287,-1.0533607006072998,1.1002352237701416
2026-04-02 12:56:44.526,1545.531712654,282446862,right_foot,右脚,D4:22:CD:00:85:22,0.7957703471183777,0.1426011025905609,-0.4046543538570404,0.4273984134197235,-10.660985991279768,-49.988800847098474,61.46067128621018,7.1142144203186035,-1.1244564056396484,5.972426891326904,1.6920806169509888,-0.9820806980133057,1.1263986825942993
2026-04-02 12:56:44.556,1545.561680476,282480196,right_foot,右脚,D4:22:CD:00:85:22,0.7958698868751526,0.14250501990318298,-0.4046473801136017,0.42725181579589844,-10.65989049017949,-49.98394119409425,61.437247748296144,7.101832866668701,-1.1317405700683594,5.980052471160889,1.6459330320358276,-1.0303477048873901,1.070236325263977
2026-04-02 12:56:44.587,1545.59237788,282513530,right_foot,右脚,D4:22:CD:00:85:22,0.795929491519928,0.1424385905265808,-0.40464600920677185,0.4271639585494995,-10.660677139548694,-49.980772301351465,61.423861524093134,7.098046779632568,-1.1374666690826416,5.975350856781006,1.6859464645385742,-1.0931949615478516,1.1390129327774048
2026-04-02 12:56:44.646,1545.651306684,282546864,right_foot,右脚,D4:22:CD:00:85:22,0.796013355255127,0.14236116409301758,-0.4046350419521332,0.4270438253879547,-10.659026582147868,-49.97632529245419,61.404124302847045,7.113505840301514,-1.130720853805542,5.971281051635742,1.7005647420883179,-1.0447803735733032,1.098743200302124
2026-04-02 12:56:44.676,1545.681470507,282580198,right_foot,右脚,D4:22:CD:00:85:22,0.7960991263389587,0.14228315651416779,-0.4046059548854828,0.42693763971328735,-10.656555159272537,-49.969746702916844,61.385206165123684,7.099801063537598,-1.1260690689086914,5.975749492645264,1.7405526638031006,-0.9827913641929626,1.123984694480896
2026-04-02 12:56:44.707,1545.712214324,282613532,right_foot,右脚,D4:22:CD:00:85:22,0.7961774468421936,0.1422003209590912,-0.4046003818511963,0.4268243610858917,-10.656786420066044,-49.96543694461679,61.36746778675311,7.1094889640808105,-1.118228554725647,5.969239711761475,1.6541354656219482,-1.047373652458191,1.1080597639083862
2026-04-02 12:56:44.736,1545.741576768,282646866,right_foot,右脚,D4:22:CD:00:85:22,0.7962275147438049,0.1421169936656952,-0.40459445118904114,0.4267643392086029,-10.661521710965653,-49.96034896827377,61.35940157499619,7.102712631225586,-1.124139428138733,5.983155727386475,1.6384093761444092,-1.0406441688537598,1.2106900215148926
2026-04-02 12:56:44.766,1545.771628166,282680200,right_foot,右脚,D4:22:CD:00:85:22,0.7963320016860962,0.14198610186576843,-0.40456703305244446,0.42663896083831787,-10.66428325510879,-49.950867746567845,61.3393442001647,7.099630832672119,-1.1276614665985107,5.9695515632629395,1.6265184879302979,-0.8994155526161194,1.1795063018798828
2026-04-02 12:56:44.796,1545.801229351,282713534,right_foot,右脚,D4:22:CD:00:85:22,0.7963992357254028,0.141901433467865,-0.4045267701148987,0.42657989263534546,-10.665358270287276,-49.94207120865469,61.328219767971945,7.10195255279541,-1.1387763023376465,5.967807292938232,1.6709821224212646,-0.9162688255310059,1.1688963174819946
2026-04-02 12:56:44.826,1545.831481926,282746868,right_foot,右脚,D4:22:CD:00:85:22,0.7964749932289124,0.14182230830192566,-0.404503732919693,0.426486611366272,-10.66482858899053,-49.9358949664854,61.31230497840696,7.102818012237549,-1.136829137802124,5.970008373260498,1.7166881561279297,-0.9915764331817627,1.153266191482544
2026-04-02 12:56:44.856,1545.861329343,282780202,right_foot,右脚,D4:22:CD:00:85:22,0.7965384125709534,0.1417633444070816,-0.4044852554798126,0.4264051020145416,-10.66328457857478,-49.931318655746765,61.298151783195365,7.105413436889648,-1.1332664489746094,5.967686653137207,1.7145942449569702,-1.0316476821899414,1.1171460151672363
2026-04-02 12:56:44.886,1545.891512378,282813536,right_foot,右脚,D4:22:CD:00:85:22,0.796586811542511,0.14171195030212402,-0.4044828712940216,0.4263341724872589,-10.663504000733719,-49.9287666337833,61.28713718549412,7.100414752960205,-1.132838249206543,5.982426643371582,1.6428658962249756,-1.086401104927063,1.0889527797698975
2026-04-02 12:56:44.946,1545.95142483,282846870,right_foot,右脚,D4:22:CD:00:85:22,0.7966597676277161,0.14162851870059967,-0.4044966399669647,0.4262125790119171,-10.665332539535598,-49.92657006180553,61.26978224387647,7.115852355957031,-1.129859209060669,5.974976062774658,1.6465351581573486,-1.1045541763305664,1.1334869861602783
2026-04-02 12:56:44.976,1545.981659905,282880204,right_foot,右脚,D4:22:CD:00:85:22,0.7967365384101868,0.14153924584388733,-0.4044988751411438,0.4260965883731842,-10.667058720155593,-49.9227199932727,61.25259051975862,7.098829746246338,-1.1284594535827637,5.977228164672852,1.6659621000289917,-1.0560756921768188,1.156205415725708
2026-04-02 12:56:45.006,1546.011609202,282913538,right_foot,右脚,D4:22:CD:00:85:22,0.7967897653579712,0.1414673775434494,-0.40450409054756165,0.4260161221027374,-10.66991918415163,-49.919806262889615,61.24141796664141,7.110281944274902,-1.1329352855682373,5.974334716796875,1.6709437370300293,-1.0885142087936401,1.1827529668807983
2026-04-02 12:56:45.036,1546.041336379,282946872,right_foot,右脚,D4:22:CD:00:85:22,0.7968512773513794,0.14140033721923828,-0.4044898748397827,0.42593657970428467,-10.670053564529823,-49.91514775973244,61.228378199610205,7.1085429191589355,-1.1380773782730103,5.9658403396606445,1.674830675125122,-1.0230865478515625,1.1289150714874268
2026-04-02 12:56:45.066,1546.07155811,282980206,right_foot,右脚,D4:22:CD:00:85:22,0.796908974647522,0.14134183526039124,-0.40449345111846924,0.425844669342041,-10.670094684180453,-49.91306057217777,61.21443139036306,7.096108913421631,-1.1265778541564941,5.966769695281982,1.6604043245315552,-1.0945460796356201,1.101246953010559
2026-04-02 12:56:45.096,1546.101518645,283013540,right_foot,右脚,D4:22:CD:00:85:22,0.7969730496406555,0.141257181763649,-0.4044865369796753,0.42575934529304504,-10.67278692404426,-49.9081360339726,61.2017607743429,7.102159023284912,-1.1374835968017578,5.9709672927856445,1.609870433807373,-1.0137122869491577,1.1400885581970215
2026-04-02 12:56:45.126,1546.131594475,283046874,right_foot,右脚,D4:22:CD:00:85:22,0.7970442771911621,0.14118769764900208,-0.4044748544692993,0.42566028237342834,-10.671875544538354,-49.9038452110121,61.18550990496933,7.109246730804443,-1.1356178522109985,5.966092109680176,1.6687794923782349,-1.023144245147705,1.0965853929519653
2026-04-02 12:56:45.156,1546.161228788,283080208,right_foot,右脚,D4:22:CD:00:85:22,0.7971190810203552,0.1411040872335434,-0.40447312593460083,0.4255494773387909,-10.672894421515542,-49.89987432904571,61.16867292196568,7.112699508666992,-1.130425214767456,5.982285976409912,1.6971391439437866,-1.044402837753296,1.1670844554901123
2026-04-02 12:56:45.186,1546.191380501,283113542,right_foot,右脚,D4:22:CD:00:85:22,0.797174870967865,0.1410313993692398,-0.40447378158569336,0.4254683554172516,-10.675303600011233,-49.89644826286424,61.15700558706078,7.106435775756836,-1.1301863193511963,5.982289791107178,1.652438759803772,-1.0583937168121338,1.1612447500228882
2026-04-02 12:56:45.246,1546.251557787,283146876,right_foot,右脚,D4:22:CD:00:85:22,0.7972385287284851,0.14096631109714508,-0.4044709801673889,0.4253731966018677,-10.67519059000583,-49.89332487078987,61.142151277449436,7.100393295288086,-1.134329915046692,5.978002548217773,1.707397222518921,-1.0633177757263184,1.1437705755233765
2026-04-02 12:56:45.277,1546.282369996,283180210,right_foot,右脚,D4:22:CD:00:85:22,0.7973138093948364,0.14087225496768951,-0.4044663906097412,0.4252678155899048,-10.677653514545728,-49.88832103837661,61.12645293377544,7.1088337898254395,-1.1154990196228027,5.980562210083008,1.6291502714157104,-1.0064319372177124,1.153490424156189
2026-04-02 12:56:45.306,1546.311603293,283213544,right_foot,右脚,D4:22:CD:00:85:22,0.7973766326904297,0.14082689583301544,-0.4044336676597595,0.4251960515975952,-10.67363183383881,-49.88297808191811,61.112184968139445,7.1054511070251465,-1.1337531805038452,5.972790241241455,1.7191340923309326,-0.978610098361969,1.0680785179138184
2026-04-02 12:56:45.336,1546.34160605,283246878,right_foot,右脚,D4:22:CD:00:85:22,0.7974820137023926,0.14071929454803467,-0.4043915569782257,0.42507392168045044,-10.672156946627195,-49.8734022114254,61.09045606825541,7.099885940551758,-1.1267812252044678,5.970621585845947,1.6519070863723755,-0.8540875315666199,1.1016823053359985
2026-04-02 12:56:45.366,1546.371534283,283280212,right_foot,右脚,D4:22:CD:00:85:22,0.7975637316703796,0.1406293660402298,-0.40437865257263184,0.4249630272388458,-10.6727035764665,-49.86785538856791,61.07280030042943,7.10099458694458,-1.142867088317871,5.985698223114014,1.6383002996444702,-0.9791927933692932,1.1186507940292358
2026-04-02 12:56:45.396,1546.401182442,283313546,right_foot,右脚,D4:22:CD:00:85:22,0.7976487278938293,0.14055375754833221,-0.4043734669685364,0.4248334467411041,-10.67077404735048,-49.86427925995313,61.05192312779232,7.09781551361084,-1.1288917064666748,5.973387718200684,1.6931308507919312,-1.0338311195373535,1.0927114486694336
2026-04-02 12:56:45.426,1546.431559588,283346880,right_foot,右脚,D4:22:CD:00:85:22,0.7976862192153931,0.14052356779575348,-0.40438082814216614,0.4247659742832184,-10.669757709469353,-49.86405575801858,61.04163622857318,7.113368988037109,-1.1349984407424927,5.958942413330078,1.7195183038711548,-1.1390031576156616,1.1168514490127563
2026-04-02 12:56:45.456,1546.461531139,283380214,right_foot,右脚,D4:22:CD:00:85:22,0.7977443337440491,0.1404549777507782,-0.4043906331062317,0.4246702194213867,-10.67147889225052,-49.86205123737363,61.02803435756794,7.101007461547852,-1.1225216388702393,5.984103679656982,1.6881555318832397,-1.092785120010376,1.1711888313293457
2026-04-02 12:56:45.486,1546.491501849,283413548,right_foot,右脚,D4:22:CD:00:85:22,0.7977952361106873,0.14041444659233093,-0.4043940305709839,0.42458468675613403,-10.669805080825231,-49.86100153239238,61.01452582160021,7.093076705932617,-1.1269625425338745,5.983192443847656,1.7410203218460083,-1.1123534440994263,1.1250091791152954
2026-04-02 12:56:45.546,1546.551563314,283446882,right_foot,右脚,D4:22:CD:00:85:22,0.7978417873382568,0.1403506100177765,-0.4043939709663391,0.424518346786499,-10.672278193462523,-49.857867907570395,61.00512945972951,7.108187675476074,-1.1176812648773193,5.973796844482422,1.643608570098877,-1.0537641048431396,1.15669846534729
2026-04-02 12:56:45.606,1546.611545755,283480216,right_foot,右脚,D4:22:CD:00:85:22,0.7978966236114502,0.14028199017047882,-0.4043962061405182,0.42443570494651794,-10.674252849181153,-49.854895180865526,60.99319996219873,7.108966827392578,-1.1366548538208008,5.990487098693848,1.6857609748840332,-1.0620179176330566,1.182010293006897
2026-04-02 12:56:45.606,1546.61162513,283513550,right_foot,右脚,D4:22:CD:00:85:22,0.7979401350021362,0.1402299851179123,-0.4043959379196167,0.42437127232551575,-10.675377248686727,-49.85245955060646,60.9836463606142,7.1015424728393555,-1.137921690940857,5.972696304321289,1.65768301486969,-1.0684019327163696,1.133896827697754
2026-04-02 12:56:45.635,1546.640371518,283546884,right_foot,右脚,D4:22:CD:00:85:22,0.798011839389801,0.1401815414428711,-0.40438470244407654,0.4242631494998932,-10.671157513457796,-49.84967154551189,60.96498317641464,7.1060404777526855,-1.1323407888412476,5.970923900604248,1.731396198272705,-1.0434998273849487,1.0648322105407715
2026-04-02 12:56:45.666,1546.671614559,283580218,right_foot,右脚,D4:22:CD:00:85:22,0.798071026802063,0.14014025032520294,-0.40438371896743774,0.42416635155677795,-10.668147999011204,-49.84826348593471,60.94905602568076,7.111170768737793,-1.1249531507492065,5.978062629699707,1.6913765668869019,-1.0819573402404785,1.0536842346191406
2026-04-02 12:56:45.696,1546.701632274,283613552,right_foot,右脚,D4:22:CD:00:85:22,0.7981284856796265,0.1400962918996811,-0.40437397360801697,0.42408207058906555,-10.66553026311722,-49.84559697970892,60.93467421768637,7.114864826202393,-1.1335302591323853,5.970428466796875,1.769418478012085,-1.0579519271850586,1.1366691589355469
2026-04-02 12:56:45.726,1546.731340636,283646886,right_foot,右脚,D4:22:CD:00:85:22,0.7981843948364258,0.1400359570980072,-0.40436679124832153,0.4240036904811859,-10.665757663694418,-49.84209415095199,60.92228201382159,7.1163835525512695,-1.1178122758865356,5.998425483703613,1.693886399269104,-1.033447027206421,1.1488673686981201
2026-04-02 12:56:45.756,1546.761349612,283680220,right_foot,右脚,D4:22:CD:00:85:22,0.7982614040374756,0.13994227349758148,-0.4043639302253723,0.42389214038848877,-10.667909093163454,-49.83740230806814,60.90568650479033,7.115593910217285,-1.1326953172683716,5.9758782386779785,1.6525988578796387,-1.0002785921096802,1.1716244220733643
2026-04-02 12:56:45.786,1546.791530467,283713554,right_foot,右脚,D4:22:CD:00:85:22,0.798307478427887,0.13987813889980316,-0.40434014797210693,0.42384934425354004,-10.669716522528502,-49.83143890440899,60.89832453054876,7.099611282348633,-1.1332082748413086,5.972925662994385,1.6792871952056885,-0.9634602069854736,1.189380168914795
2026-04-02 12:56:45.876,1546.881108929,283746888,right_foot,右脚,D4:22:CD:00:85:22,0.7983767986297607,0.13979355990886688,-0.40434789657592773,0.4237392246723175,-10.672040913120492,-49.82841688366456,60.8826170778411,7.113582134246826,-1.1388713121414185,5.996702194213867,1.6367125511169434,-1.0457473993301392,1.1527092456817627
2026-04-02 12:56:45.876,1546.881201457,283780222,right_foot,右脚,D4:22:CD:00:85:22,0.7984532713890076,0.13970288634300232,-0.40435677766799927,0.4236166179180145,-10.6742170050733,-49.82529740163535,60.8650059739611,7.101094722747803,-1.1254714727401733,5.982566833496094,1.6649823188781738,-1.0459778308868408,1.1734297275543213
2026-04-02 12:56:45.906,1546.911144697,283813556,right_foot,右脚,D4:22:CD:00:85:22,0.7985155582427979,0.13960692286491394,-0.40432989597320557,0.42355647683143616,-10.678244151953804,-49.81724819065482,60.8555403953566,7.106987476348877,-1.1301177740097046,5.9615559577941895,1.615018367767334,-0.9001967310905457,1.2048438787460327
2026-04-02 12:56:45.936,1546.941180175,283846890,right_foot,右脚,D4:22:CD:00:85:22,0.7986089587211609,0.13950484991073608,-0.40430736541748047,0.42343586683273315,-10.678476964677952,-49.81007278884714,60.83577988883866,7.099503993988037,-1.1405352354049683,5.965606212615967,1.6818163394927979,-0.9173957109451294,1.162448525428772
2026-04-02 12:56:45.965,1546.970080697,283880224,right_foot,右脚,D4:22:CD:00:85:22,0.7986757159233093,0.1394374519586563,-0.40430426597595215,0.42333492636680603,-10.678195970524179,-49.80686922741283,60.820015574110236,7.112971782684326,-1.1382633447647095,5.984768867492676,1.7283868789672852,-1.0384670495986938,1.166117548942566
2026-04-02 12:56:45.995,1547.000105485,283913558,right_foot,右脚,D4:22:CD:00:85:22,0.798711359500885,0.13938024640083313,-0.4043315052986145,0.4232605993747711,-10.682267928602963,-49.80714561813576,60.81150886865456,7.107634544372559,-1.128382921218872,5.973837375640869,1.594214677810669,-1.138395071029663,1.1417597532272339
2026-04-02 12:56:46.026,1547.031210645,283946892,right_foot,右脚,D4:22:CD:00:85:22,0.7987727522850037,0.13931600749492645,-0.4043383002281189,0.4231594502925873,-10.68268449527571,-49.80518353939224,60.79650675890449,7.100538730621338,-1.120287537574768,5.988597393035889,1.6788965463638306,-1.068203330039978,1.1355807781219482
2026-04-02 12:56:46.056,1547.061306741,283980226,right_foot,右脚,D4:22:CD:00:85:22,0.7988040447235107,0.13929550349712372,-0.4043426811695099,0.4231026768684387,-10.681031983919896,-49.80512186916037,60.78751050986808,7.10201358795166,-1.1410939693450928,5.989485263824463,1.731658935546875,-1.1217724084854126,1.1158846616744995
2026-04-02 12:56:46.085,1547.09030761,284013560,right_foot,右脚,D4:22:CD:00:85:22,0.7988483905792236,0.13923972845077515,-0.4043675661087036,0.42301344871520996,-10.683421941876663,-49.80544323777075,60.77603691087306,7.099415302276611,-1.1344670057296753,5.974289417266846,1.6581119298934937,-1.1402134895324707,1.1546303033828735
2026-04-02 12:56:46.145,1547.150193643,284046894,right_foot,右脚,D4:22:CD:00:85:22,0.798896849155426,0.13920018076896667,-0.40434813499450684,0.42295366525650024,-10.68122380373636,-49.80170997951971,60.76501378062764,7.104617595672607,-1.1316416263580322,5.983211994171143,1.685594081878662,-1.0022120475769043,1.0847138166427612
2026-04-02 12:56:46.177,1547.182063561,284080228,right_foot,右脚,D4:22:CD:00:85:22,0.7989682555198669,0.13913434743881226,-0.4043581485748291,0.422830730676651,-10.680397868691696,-49.800283352649394,60.74645769969147,7.104222774505615,-1.1378792524337769,5.966830730438232,1.7104836702346802,-1.0801581144332886,1.1284605264663696
2026-04-02 12:56:46.206,1547.211238902,284113562,right_foot,右脚,D4:22:CD:00:85:22,0.7990233302116394,0.13907583057880402,-0.40433886647224426,0.42276445031166077,-10.680070108917617,-49.79546672349179,60.735066528858745,7.100440979003906,-1.1336579322814941,5.977725982666016,1.6699832677841187,-0.9750051498413086,1.125124216079712
2026-04-02 12:56:46.266,1547.271125443,284146896,right_foot,右脚,D4:22:CD:00:85:22,0.7990791201591492,0.13902521133422852,-0.40431925654411316,0.4226944148540497,-10.678401906015308,-49.79116160000984,60.72264433047935,7.109223365783691,-1.1289494037628174,5.963964939117432,1.7181769609451294,-0.9902448058128357,1.131108283996582
2026-04-02 12:56:46.266,1547.271211234,284180230,right_foot,右脚,D4:22:CD:00:85:22,0.7991688847541809,0.13892748951911926,-0.40431642532348633,0.42255935072898865,-10.679146983044491,-49.78654979217914,60.70201536177133,7.106159210205078,-1.133932113647461,5.984543800354004,1.6418094635009766,-0.9800892472267151,1.1297667026519775
2026-04-02 12:56:46.295,1547.300350306,284213564,right_foot,右脚,D4:22:CD:00:85:22,0.7992047071456909,0.13889798521995544,-0.40431633591651917,0.4225015938282013,-10.678037232436873,-49.785458925288665,60.692778521840104,7.100671291351318,-1.1389127969741821,5.992372989654541,1.6666792631149292,-1.077289342880249,1.081192135810852
2026-04-02 12:56:46.326,1547.33133852,284246898,right_foot,右脚,D4:22:CD:00:85:22,0.7992499470710754,0.1388610303401947,-0.40431922674179077,0.4224252998828888,-10.67666626842425,-49.784469101883005,60.680795983704144,7.1056365966796875,-1.1234660148620605,5.97812557220459,1.6799852848052979,-1.0811506509780884,1.08702552318573
2026-04-02 12:56:46.356,1547.361537468,284280232,right_foot,右脚,D4:22:CD:00:85:22,0.7993080615997314,0.13879923522472382,-0.4043097496032715,0.42234477400779724,-10.676679904928816,-49.78067494673939,60.66790587475446,7.111167907714844,-1.1358174085617065,5.981991291046143,1.7043043375015259,-1.0081158876419067,1.1589715480804443
2026-04-02 12:56:46.386,1547.391474429,284313566,right_foot,右脚,D4:22:CD:00:85:22,0.7993581891059875,0.13874275982379913,-0.4042973518371582,0.4222800135612488,-10.677019464728787,-49.77670328331233,60.65738810987617,7.10239839553833,-1.1225502490997314,5.979631423950195,1.6730761528015137,-0.9983319640159607,1.1415613889694214
2026-04-02 12:56:46.446,1547.451279448,284346900,right_foot,右脚,D4:22:CD:00:85:22,0.7994207143783569,0.13867998123168945,-0.4042888581752777,0.42219075560569763,-10.67653678101615,-49.77306289037898,60.643044556648604,7.102559566497803,-1.1322779655456543,5.976386547088623,1.6539369821548462,-1.0010212659835815,1.105139970779419
2026-04-02 12:56:46.476,1547.48146701,284380234,right_foot,右脚,D4:22:CD:00:85:22,0.7994751930236816,0.1386025995016098,-0.4042539894580841,0.42214635014533997,-10.678677723520886,-49.76513885893512,60.63494473145391,7.101917743682861,-1.12895929813385,5.988305568695068,1.686715006828308,-0.8909699320793152,1.2203717231750488
2026-04-02 12:56:46.506,1547.511539091,284413568,right_foot,右脚,D4:22:CD:00:85:22,0.7995325922966003,0.1385335624217987,-0.4042375087738037,0.42207586765289307,-10.679669454519388,-49.76002749986655,60.623531694697164,7.103271961212158,-1.1450644731521606,5.97476863861084,1.6509977579116821,-0.9625315070152283,1.1468437910079956
2026-04-02 12:56:46.536,1547.541527302,284446902,right_foot,右脚,D4:22:CD:00:85:22,0.7995694279670715,0.1385054588317871,-0.40422603487968445,0.42202654480934143,-10.677813087921516,-49.75771144037494,60.614694445421435,7.094869136810303,-1.1355196237564087,5.974221229553223,1.7029470205307007,-1.0382940769195557,1.1023675203323364
2026-04-02 12:56:46.566,1547.57135513,284480236,right_foot,右脚,D4:22:CD:00:85:22,0.7995980978012085,0.13846705853939056,-0.40423497557640076,0.4219762682914734,-10.679476041173189,-49.75692528003806,60.608050141341494,7.105306148529053,-1.1311898231506348,5.971302032470703,1.6951032876968384,-1.0982214212417603,1.1750754117965698
2026-04-02 12:56:46.596,1547.601426321,284513570,right_foot,右脚,D4:22:CD:00:85:22,0.799632728099823,0.13844162225723267,-0.40422752499580383,0.4219261109828949,-10.677674246970772,-49.75521692858311,60.59934447461509,7.111111640930176,-1.1202309131622314,5.985370635986328,1.699175477027893,-1.0543724298477173,1.0975972414016724
2026-04-02 12:56:46.626,1547.631597235,284546904,right_foot,右脚,D4:22:CD:00:85:22,0.7996732592582703,0.13840989768505096,-0.4042304456233978,0.42185676097869873,-10.676237539718603,-49.75446836227279,60.588417736380784,7.092636585235596,-1.1284681558609009,5.9879560470581055,1.7316718101501465,-1.0888152122497559,1.129030466079712
2026-04-02 12:56:46.656,1547.661651497,284580238,right_foot,右脚,D4:22:CD:00:85:22,0.799719512462616,0.13836319744586945,-0.40423157811164856,0.42178332805633545,-10.676145754440284,-49.75264774039712,60.577201475513306,7.09507942199707,-1.1212292909622192,5.9707231521606445,1.7010774612426758,-1.058669090270996,1.1448653936386108
2026-04-02 12:56:46.686,1547.691301292,284613572,right_foot,右脚,D4:22:CD:00:85:22,0.7997403144836426,0.1383180022239685,-0.40424326062202454,0.4217475950717926,-10.680183205814274,-49.75153388644345,60.57372431385077,7.093575477600098,-1.1264536380767822,5.963369369506836,1.6469000577926636,-1.0893018245697021,1.1978580951690674
2026-04-02 12:56:46.746,1547.75146569,284646906,right_foot,右脚,D4:22:CD:00:85:22,0.7997824549674988,0.13827185332775116,-0.40424519777297974,0.4216809570789337,-10.680679393626088,-49.74974369576887,60.56379103827233,7.101895332336426,-1.1444801092147827,5.972301959991455,1.6524066925048828,-1.0529061555862427,1.1186891794204712
2026-04-02 12:56:46.776,1547.781499449,284680240,right_foot,右脚,D4:22:CD:00:85:22,0.7998512387275696,0.13821429014205933,-0.4042358994483948,0.42157816886901855,-10.678352517530943,-49.74653713417013,60.54675189382934,7.101150989532471,-1.125083565711975,5.9787750244140625,1.7046695947647095,-1.0055867433547974,1.1008883714675903
2026-04-02 12:56:46.836,1547.841412993,284713574,right_foot,右脚,D4:22:CD:00:85:22,0.7998825311660767,0.13820013403892517,-0.40422189235687256,0.4215368628501892,-10.675132758139013,-49.74472304363981,60.5385630667712,7.110515117645264,-1.1334564685821533,5.96604585647583,1.7159775495529175,-1.0429877042770386,1.0776000022888184
2026-04-02 12:56:46.836,1547.841519797,284746908,right_foot,右脚,D4:22:CD:00:85:22,0.799934983253479,0.13815531134605408,-0.40420952439308167,0.4214640259742737,-10.673341399799265,-49.741584918937846,60.526105755449564,7.111222743988037,-1.1315580606460571,5.981372833251953,1.6888086795806885,-1.0058300495147705,1.0989352464675903
2026-04-02 12:56:46.866,1547.871555579,284780242,right_foot,右脚,D4:22:CD:00:85:22,0.7999895215034485,0.13809877634048462,-0.40421053767204285,0.4213782250881195,-10.673452152452352,-49.739301957762855,60.513056591704796,7.098163604736328,-1.1293917894363403,5.982107639312744,1.685402274131775,-1.0391842126846313,1.1410553455352783
2026-04-02 12:56:46.896,1547.901614358,284813576,right_foot,右脚,D4:22:CD:00:85:22,0.8000372648239136,0.13805966079235077,-0.40420064330101013,0.42130956053733826,-10.671580746081927,-49.73673531213376,60.50137333586759,7.10512638092041,-1.1220964193344116,5.981969833374023,1.7049769163131714,-1.023547649383545,1.108418583869934
2026-04-02 12:56:46.926,1547.931155022,284846910,right_foot,右脚,D4:22:CD:00:85:22,0.8000567555427551,0.13803713023662567,-0.4041861295700073,0.4212937653064728,-10.671486640617822,-49.73400889488895,60.498098520527584,7.106319904327393,-1.128913402557373,5.963768482208252,1.705572485923767,-1.0260320901870728,1.1532343626022339
2026-04-02 12:56:46.956,1547.96130656,284880244,right_foot,右脚,D4:22:CD:00:85:22,0.8001081943511963,0.13797031342983246,-0.4041799008846283,0.4212241470813751,-10.673430345636154,-49.73010578517817,60.48771956429573,7.108719825744629,-1.1209917068481445,5.975009918212891,1.6713857650756836,-0.9954057335853577,1.1856664419174194
2026-04-02 12:56:46.986,1547.991286458,284913578,right_foot,右脚,D4:22:CD:00:85:22,0.8001468777656555,0.13793286681175232,-0.4041752219200134,0.421167254447937,-10.672909983383498,-49.72803564146093,60.47857870566036,7.10120153427124,-1.1334564685821533,5.985944747924805,1.674728274345398,-1.0371288061141968,1.113771677017212
2026-04-02 12:56:47.046,1548.051299853,284946912,right_foot,右脚,D4:22:CD:00:85:22,0.8002073764801025,0.13785021007061005,-0.4041615426540375,0.42109254002571106,-10.675602241301066,-49.722430581758424,60.46725035998963,7.10318660736084,-1.1281927824020386,5.96492862701416,1.597057580947876,-0.935792088508606,1.1510188579559326
2026-04-02 12:56:47.076,1548.081441206,284980246,right_foot,右脚,D4:22:CD:00:85:22,0.8002505898475647,0.13780048489570618,-0.40414151549339294,0.42104583978652954,-10.675758844115924,-49.71783781167812,60.45901576778493,7.101718902587891,-1.1295348405838013,5.972552299499512,1.6751378774642944,-0.9649648666381836,1.1461331844329834
2026-04-02 12:56:47.106,1548.111570859,285013580,right_foot,右脚,D4:22:CD:00:85:22,0.8002639412879944,0.13779360055923462,-0.4041171967983246,0.42104634642601013,-10.67393873292631,-49.71482723610893,60.457094755732086,7.1069793701171875,-1.1350294351577759,5.980252265930176,1.7216825485229492,-1.008180022239685,1.1260849237442017
2026-04-02 12:56:47.136,1548.141556365,285046914,right_foot,右脚,D4:22:CD:00:85:22,0.8002943992614746,0.13775984942913055,-0.4041302800178528,0.4209868907928467,-10.674729173041245,-49.71489683896856,60.449006351687984,7.1050591468811035,-1.1363437175750732,5.977687358856201,1.6739214658737183,-1.1033375263214111,1.1366181373596191
2026-04-02 12:56:47.166,1548.171560862,285080248,right_foot,右脚,D4:22:CD:00:85:22,0.8003286123275757,0.13771015405654907,-0.40415430068969727,0.42091500759124756,-10.677725066620425,-49.71529425234834,60.44036847224741,7.106746196746826,-1.132372260093689,5.968413352966309,1.6342664957046509,-1.1166369915008545,1.1568777561187744
2026-04-02 12:56:47.196,1548.201476047,285113582,right_foot,右脚,D4:22:CD:00:85:22,0.8003392219543457,0.13770125806331635,-0.40416082739830017,0.4208914041519165,-10.67762142809568,-49.715744454779056,60.43709799099493,7.091889381408691,-1.128882646560669,5.990437984466553,1.7018711566925049,-1.1131409406661987,1.1341849565505981
2026-04-02 12:56:47.226,1548.231610952,285146916,right_foot,右脚,D4:22:CD:00:85:22,0.8003584146499634,0.13768945634365082,-0.40417176485061646,0.4208482503890991,-10.67675409268109,-49.71673802678486,60.430833780272685,7.105733394622803,-1.129077672958374,5.9874653816223145,1.6954103708267212,-1.1245514154434204,1.1064079999923706
2026-04-02 12:56:47.256,1548.261544717,285180250,right_foot,右脚,D4:22:CD:00:85:22,0.8003851771354675,0.13764658570289612,-0.40416786074638367,0.4208151698112488,-10.67898169552861,-49.71409418650487,60.426284548754616,7.099312782287598,-1.1302061080932617,5.981150150299072,1.6502807140350342,-1.0239893198013306,1.166629672050476
2026-04-02 12:56:47.286,1548.29141907,285213584,right_foot,右脚,D4:22:CD:00:85:22,0.8004194498062134,0.1375982016324997,-0.40416014194488525,0.42077332735061646,-10.680749942279396,-49.71081924943692,60.42002388987551,7.1107072830200195,-1.1202030181884766,5.976204872131348,1.6548398733139038,-1.0035121440887451,1.1619619131088257
2026-04-02 12:56:47.346,1548.351588185,285246918,right_foot,右脚,D4:22:CD:00:85:22,0.8004674911499023,0.13754503428936005,-0.4041586220264435,0.4207007884979248,-10.681272283527427,-49.708311171024356,60.409014157912594,7.109139442443848,-1.1319074630737305,5.986453056335449,1.667729377746582,-1.0221644639968872,1.1390832662582397
2026-04-02 12:56:47.376,1548.381571178,285280252,right_foot,右脚,D4:22:CD:00:85:22,0.8005012273788452,0.13752023875713348,-0.40416833758354187,0.4206351339817047,-10.680048766485612,-49.70867013137291,60.399130750790725,7.104518890380859,-1.130515694618225,5.977514743804932,1.6902368068695068,-1.1011735200881958,1.0982950925827026
2026-04-02 12:56:47.406,1548.411396575,285313586,right_foot,右脚,D4:22:CD:00:85:22,0.8005194664001465,0.13749538362026215,-0.40416109561920166,0.42061546444892883,-10.680745807461227,-49.70661966958033,60.395941954743385,7.112458229064941,-1.1286567449569702,5.979658126831055,1.6880849599838257,-1.0381724834442139,1.1585360765457153
2026-04-02 12:56:47.436,1548.441637126,285346920,right_foot,右脚,D4:22:CD:00:85:22,0.8005480766296387,0.13747316598892212,-0.4041615426540375,0.4205680787563324,-10.67966385781123,-49.70590837704672,60.388354886383915,7.105449199676514,-1.1243230104446411,5.972883224487305,1.7509900331497192,-1.079127311706543,1.160201072692871
2026-04-02 12:56:47.466,1548.471531684,285380254,right_foot,右脚,D4:22:CD:00:85:22,0.800586998462677,0.1374255120754242,-0.40415099263191223,0.4205198287963867,-10.680495092774175,-49.70246575539014,60.38064601947967,7.0981621742248535,-1.1224735975265503,5.997539043426514,1.6625940799713135,-0.992933988571167,1.1504234075546265
2026-04-02 12:56:47.494,1548.499864186,285413588,right_foot,右脚,D4:22:CD:00:85:22,0.800618588924408,0.13738477230072021,-0.4041505455970764,0.42047321796417236,-10.68172888973542,-49.70050621922099,60.37390892334901,7.112180709838867,-1.1284528970718384,5.976995468139648,1.668145775794983,-1.0390434265136719,1.1557700634002686
2026-04-02 12:56:47.526,1548.531461449,285446922,right_foot,右脚,D4:22:CD:00:85:22,0.800636887550354,0.1373494416475296,-0.4041604995727539,0.4204404056072235,-10.684580500879921,-49.69979476463027,60.370398795754824,7.106426239013672,-1.1396551132202148,5.982417583465576,1.624059796333313,-1.0758230686187744,1.1520367860794067
2026-04-02 12:56:47.556,1548.561462595,285480256,right_foot,右脚,D4:22:CD:00:85:22,0.8006747364997864,0.1373002529144287,-0.4041275680065155,0.4204159677028656,-10.685085192473542,-49.693579986840234,60.364958298836605,7.108925819396973,-1.126010537147522,5.985754489898682,1.6670633554458618,-0.9086297750473022,1.1593748331069946
2026-04-02 12:56:47.586,1548.591534541,285513590,right_foot,右脚,D4:22:CD:00:85:22,0.8007214069366455,0.13724277913570404,-0.404087632894516,0.4203839600086212,-10.68523205885307,-49.68621403179283,60.35785189630823,7.101102352142334,-1.1366634368896484,5.97435188293457,1.6911647319793701,-0.876600980758667,1.1782194375991821
2026-04-02 12:56:47.646,1548.651420262,285546924,right_foot,右脚,D4:22:CD:00:85:22,0.8007422089576721,0.1372305452823639,-0.4040590226650238,0.4203762710094452,-10.682930623924122,-49.68252252396501,60.35427293568028,7.103195667266846,-1.138810396194458,5.97866153717041,1.7607803344726562,-0.983649492263794,1.1531959772109985
2026-04-02 12:56:47.676,1548.681544616,285580258,right_foot,右脚,D4:22:CD:00:85:22,0.800771951675415,0.1371946781873703,-0.40406039357185364,0.42032986879348755,-10.68377111471998,-49.68105514639025,60.3475409703361,7.106656551361084,-1.1317284107208252,5.9681549072265625,1.6676461696624756,-1.0490578413009644,1.141900658607483
2026-04-02 12:56:47.706,1548.711404399,285613592,right_foot,右脚,D4:22:CD:00:85:22,0.8007837533950806,0.13718295097351074,-0.40407437086105347,0.42029765248298645,-10.684147514557578,-49.68223320193432,60.34354055820982,7.106096267700195,-1.1292469501495361,5.979336738586426,1.673178791999817,-1.124480962753296,1.1218140125274658
2026-04-02 12:56:47.736,1548.74133392,285646926,right_foot,右脚,D4:22:CD:00:85:22,0.8007822036743164,0.13717389106750488,-0.40408700704574585,0.42029130458831787,-10.686180242333373,-49.683091973436426,60.343964447242044,7.0993452072143555,-1.1311007738113403,5.991377353668213,1.7045797109603882,-1.1277529001235962,1.1905903816223145
2026-04-02 12:56:47.766,1548.771427821,285680260,right_foot,右脚,D4:22:CD:00:85:22,0.8008020520210266,0.13716240227222443,-0.40409860014915466,0.4202463626861572,-10.685195272376735,-49.68419416215978,60.33741927276817,7.098381996154785,-1.1310070753097534,6.000389575958252,1.703702688217163,-1.1204404830932617,1.1136947870254517
2026-04-02 12:56:47.796,1548.801353718,285713594,right_foot,右脚,D4:22:CD:00:85:22,0.8008068799972534,0.13714589178562164,-0.4041321873664856,0.42021024227142334,-10.68804019190065,-49.68719782936815,60.334748997562855,7.105710029602051,-1.1347615718841553,5.9752044677734375,1.6753684282302856,-1.1897674798965454,1.1747617721557617
2026-04-02 12:56:47.826,1548.831510362,285746928,right_foot,右脚,D4:22:CD:00:85:22,0.800831139087677,0.13711215555667877,-0.40412434935569763,0.42018255591392517,-10.689130694863517,-49.6846393145396,60.33043257261812,7.11508846282959,-1.1267815828323364,5.980062961578369,1.615159273147583,-1.007507562637329,1.1112935543060303
2026-04-02 12:56:47.856,1548.862038606,285780262,right_foot,右脚,D4:22:CD:00:85:22,0.8008634448051453,0.13708901405334473,-0.40408971905708313,0.4201619327068329,-10.686473496996921,-49.67981149369622,60.32443092747787,7.110114574432373,-1.136055588722229,5.989326000213623,1.7162845134735107,-0.9388207197189331,1.1176390647888184
2026-04-02 12:56:47.886,1548.89157403,285813596,right_foot,右脚,D4:22:CD:00:85:22,0.8008880019187927,0.1370444893836975,-0.4040747880935669,0.42014387249946594,-10.68893609536902,-49.67570766165795,60.32164150638943,7.107208728790283,-1.132046103477478,5.988519668579102,1.6574779748916626,-0.974172830581665,1.190756916999817
2026-04-02 12:56:47.946,1548.951518568,285846930,right_foot,右脚,D4:22:CD:00:85:22,0.8009043335914612,0.13699871301651,-0.4040631949901581,0.42013898491859436,-10.693012654128848,-49.67169850287782,60.32157696448034,7.098484516143799,-1.12801992893219,5.97629976272583,1.6355022192001343,-0.9812737703323364,1.2115094661712646
2026-04-02 12:56:47.977,1548.982265172,285880264,right_foot,右脚,D4:22:CD:00:85:22,0.8009186387062073,0.1369888186454773,-0.4040771424770355,0.4201013445854187,-10.692707447363073,-49.67306115962584,60.31652397417785,7.098741054534912,-1.1237527132034302,5.971182346343994,1.7252875566482544,-1.1322927474975586,1.1474330425262451
2026-04-02 12:56:48.006,1549.0114804,285913598,right_foot,右脚,D4:22:CD:00:85:22,0.8009167909622192,0.13701187074184418,-0.4040551781654358,0.4201183319091797,-10.6887542108054,-49.671949054630026,60.31657040591309,7.107746601104736,-1.1330492496490479,5.973128318786621,1.7994364500045776,-1.052874207496643,1.1316875219345093
2026-04-02 12:56:48.036,1549.041519964,285946932,right_foot,右脚,D4:22:CD:00:85:22,0.8009511828422546,0.13698706030845642,-0.4040493071079254,0.4200664460659027,-10.686936795819916,-49.670475856740715,60.30771064462262,7.100351333618164,-1.123519778251648,5.988053798675537,1.6823030710220337,-1.034055233001709,1.0914307832717896
2026-04-02 12:56:48.066,1549.071607151,285980266,right_foot,右脚,D4:22:CD:00:85:22,0.8009793162345886,0.13696980476379395,-0.40403813123703003,0.4200294315814972,-10.68479695324964,-49.66870807421014,60.300704377103536,7.106323719024658,-1.12537682056427,5.985118389129639,1.7203378677368164,-1.0290863513946533,1.1163071393966675
2026-04-02 12:56:48.096,1549.101305376,286013600,right_foot,右脚,D4:22:CD:00:85:22,0.8009951710700989,0.13694217801094055,-0.40402594208717346,0.4200200140476227,-10.686143466301901,-49.665826005360486,60.29901552258268,7.099360466003418,-1.1314829587936401,5.995045185089111,1.6686835289001465,-1.0042484998703003,1.1660469770431519
2026-04-02 12:56:48.126,1549.131360828,286046934,right_foot,右脚,D4:22:CD:00:85:22,0.8010590672492981,0.13685381412506104,-0.4039812386035919,0.4199698865413666,-10.688166662771707,-49.65627573223212,60.28949166158494,7.096619606018066,-1.1314923763275146,5.9733405113220215,1.6079877614974976,-0.8015238642692566,1.1718034744262695
2026-04-02 12:56:48.156,1549.161749902,286080268,right_foot,右脚,D4:22:CD:00:85:22,0.8010851144790649,0.13682213425636292,-0.40397337079048157,0.4199381470680237,-10.68866183581105,-49.65389586673041,60.28435886282939,7.099972248077393,-1.1328856945037842,5.986977577209473,1.6667306423187256,-1.0143141746520996,1.1406008005142212
2026-04-02 12:56:48.186,1549.191588625,286113602,right_foot,右脚,D4:22:CD:00:85:22,0.8010948300361633,0.13681934773921967,-0.4039730131626129,0.4199208915233612,-10.68754544952826,-49.65391334411054,60.281333082499195,7.10714864730835,-1.129729151725769,5.974828720092773,1.7373191118240356,-1.0881685018539429,1.1467798948287964
2026-04-02 12:56:48.246,1549.251358354,286146936,right_foot,右脚,D4:22:CD:00:85:22,0.8011125326156616,0.1368476003408432,-0.4039587676525116,0.41989120841026306,-10.679942992175247,-49.654563205737716,60.27349336214005,7.1117377281188965,-1.1354970932006836,5.983349800109863,1.8399814367294312,-1.0919526815414429,1.0669130086898804
2026-04-02 12:56:48.276,1549.281509443,286180270,right_foot,右脚,D4:22:CD:00:85:22,0.8011167049407959,0.13684223592281342,-0.4039653539657593,0.4198787808418274,-10.680323717048067,-49.655088907634024,60.27209031498379,7.106692314147949,-1.1141738891601562,5.986053943634033,1.7154715061187744,-1.1058412790298462,1.1630696058273315
2026-04-02 12:56:48.306,1549.311554648,286213604,right_foot,右脚,D4:22:CD:00:85:22,0.8011375665664673,0.13681785762310028,-0.4039667546749115,0.41984549164772034,-10.680806851705615,-49.6541658091616,60.267248341357444,7.0964765548706055,-1.1247433423995972,5.985139846801758,1.662325382232666,-1.0548336505889893,1.1291841268539429
2026-04-02 12:56:48.336,1549.341366561,286246938,right_foot,右脚,D4:22:CD:00:85:22,0.8011446595191956,0.13680459558963776,-0.4039846658706665,0.41981902718544006,-10.682290454220384,-49.65558743857309,60.26471357132168,7.110687255859375,-1.1292603015899658,5.976935386657715,1.6691254377365112,-1.1290143728256226,1.1490466594696045
2026-04-02 12:56:48.366,1549.371504613,286280272,right_foot,右脚,D4:22:CD:00:85:22,0.8011482954025269,0.1367935687303543,-0.4040249288082123,0.41977718472480774,-10.68470534253176,-49.659710481419076,60.26139628139109,7.1081647872924805,-1.1334693431854248,5.983144760131836,1.6590659618377686,-1.2115960121154785,1.1491554975509644
2026-04-02 12:56:48.396,1549.401555349,286313606,right_foot,右脚,D4:22:CD:00:85:22,0.8011639714241028,0.1367596536874771,-0.40402793884277344,0.4197554290294647,-10.68752478120002,-49.65821110896304,60.259176554380325,7.107477188110352,-1.1309607028961182,5.9852118492126465,1.6367381811141968,-1.0441081523895264,1.1721045970916748
2026-04-02 12:56:48.426,1549.43159096,286346940,right_foot,右脚,D4:22:CD:00:85:22,0.8011983633041382,0.13673625886440277,-0.4040135145187378,0.41971150040626526,-10.685231234220852,-49.655811526725714,60.25088416337603,7.100736618041992,-1.1380665302276611,5.980483055114746,1.6946548223495483,-1.0020840167999268,1.097277045249939
2026-04-02 12:56:48.456,1549.461442715,286380274,right_foot,右脚,D4:22:CD:00:85:22,0.8012195229530334,0.1367105394601822,-0.40400874614715576,0.4196838438510895,-10.685666602830597,-49.654081569031796,60.24654313419351,7.105412483215332,-1.1292635202407837,5.980711936950684,1.6505495309829712,-1.0274791717529297,1.1230241060256958
2026-04-02 12:56:48.486,1549.491547274,286413608,right_foot,右脚,D4:22:CD:00:85:22,0.8012337684631348,0.13670165836811066,-0.40399670600891113,0.4196711480617523,-10.684395357314518,-49.65242484008665,60.24350099046469,7.096009731292725,-1.13531494140625,5.989203929901123,1.7028894424438477,-1.0295026302337646,1.1240167617797852
2026-04-02 12:56:48.576,1549.581443289,286446942,right_foot,右脚,D4:22:CD:00:85:22,0.8012441992759705,0.13668465614318848,-0.4039883017539978,0.41966474056243896,-10.685079371293423,-49.65056777781452,60.24227690369005,7.106192588806152,-1.1205092668533325,5.988804340362549,1.6923178434371948,-1.0308088064193726,1.1665722131729126
2026-04-02 12:56:48.576,1549.58156019,286480276,right_foot,右脚,D4:22:CD:00:85:22,0.8012713193893433,0.1366674304008484,-0.403967022895813,0.41963911056518555,-10.682762027737438,-49.64758664752534,60.236389271884576,7.10853385925293,-1.1327686309814453,5.965367794036865,1.720299482345581,-0.9878050088882446,1.1222877502441406
2026-04-02 12:56:48.606,1549.611601533,286513610,right_foot,右脚,D4:22:CD:00:85:22,0.8013030886650085,0.1366477608680725,-0.4039466679096222,0.41960451006889343,-10.680115176791722,-49.64467025075564,60.2290757921773,7.094825267791748,-1.1330024003982544,5.964937686920166,1.6724483966827393,-0.9800122976303101,1.0722339153289795
2026-04-02 12:56:48.636,1549.641612392,286546944,right_foot,右脚,D4:22:CD:00:85:22,0.8013273477554321,0.13661877810955048,-0.403940886259079,0.41957327723503113,-10.68054741748372,-49.64267206566394,60.22411979564612,7.095421314239502,-1.1292273998260498,5.9747467041015625,1.6675053834915161,-1.0203012228012085,1.1394227743148804
2026-04-02 12:56:48.668,1549.673296932,286580278,right_foot,右脚,D4:22:CD:00:85:22,0.8013566732406616,0.13658644258975983,-0.4039415419101715,0.41952720284461975,-10.680895227987317,-49.6413445224313,60.21723706198827,7.093005180358887,-1.1258479356765747,5.970245838165283,1.6590211391448975,-1.03817880153656,1.1271926164627075
2026-04-02 12:56:48.696,1549.701587401,286613612,right_foot,右脚,D4:22:CD:00:85:22,0.8013810515403748,0.13653184473514557,-0.4039081037044525,0.4195304811000824,-10.684341617557951,-49.63437858274704,60.21698828628288,7.116525650024414,-1.1339311599731445,5.972707748413086,1.6312376260757446,-0.881550669670105,1.214333415031433
2026-04-02 12:56:48.726,1549.731607455,286646946,right_foot,右脚,D4:22:CD:00:85:22,0.8013936877250671,0.1365027129650116,-0.40389296412467957,0.41953036189079285,-10.686326299785959,-49.630971879485585,60.216770520482974,7.095753192901611,-1.1321605443954468,5.975974082946777,1.6822069883346558,-0.9863963723182678,1.1992411613464355
2026-04-02 12:56:48.756,1549.761592806,286680280,right_foot,右脚,D4:22:CD:00:85:22,0.8014234304428101,0.1365116685628891,-0.40386635065078735,0.4194962978363037,-10.67941451075613,-49.6291631478767,60.20777728455178,7.1068220138549805,-1.1318250894546509,5.9688568115234375,1.772639274597168,-1.006310224533081,1.042216181755066
2026-04-02 12:56:48.786,1549.791444947,286713614,right_foot,右脚,D4:22:CD:00:85:22,0.8014516234397888,0.1364765465259552,-0.40387028455734253,0.41944998502731323,-10.680465219985386,-49.62801557299943,60.2012823474269,7.110864639282227,-1.1369799375534058,5.968245029449463,1.6347532272338867,-1.0410537719726562,1.1234147548675537
2026-04-02 12:56:48.846,1549.851608968,286746948,right_foot,右脚,D4:22:CD:00:85:22,0.8014816641807556,0.1364576518535614,-0.40387001633644104,0.41939908266067505,-10.678614229191506,-49.62748761824314,60.19288314006459,7.096996784210205,-1.1137615442276,5.982539176940918,1.7087419033050537,-1.0568184852600098,1.1091804504394531
2026-04-02 12:56:48.876,1549.881509941,286780282,right_foot,右脚,D4:22:CD:00:85:22,0.801494300365448,0.13641944527626038,-0.4038713574409485,0.4193860590457916,-10.682515085829168,-49.62543236194631,60.19226236657929,7.101678371429443,-1.13121497631073,5.967399597167969,1.6748243570327759,-1.0332037210464478,1.2335172891616821
2026-04-02 12:56:48.906,1549.911231752,286813616,right_foot,右脚,D4:22:CD:00:85:22,0.8014930486679077,0.13642379641532898,-0.40387478470802307,0.4193834066390991,-10.682136405932221,-49.626106237926756,60.19193821725365,7.102310657501221,-1.1358455419540405,5.983788013458252,1.7189358472824097,-1.099604606628418,1.146306037902832
2026-04-02 12:56:48.936,1549.941497102,286846950,right_foot,右脚,D4:22:CD:00:85:22,0.8015108704566956,0.13640981912612915,-0.403875470161438,0.4193533957004547,-10.68149505901508,-49.62570630786902,60.18717921439781,7.108262538909912,-1.131559133529663,5.979419231414795,1.6790376901626587,-1.0607885122299194,1.1143606901168823
2026-04-02 12:56:48.966,1549.971653849,286880284,right_foot,右脚,D4:22:CD:00:85:22,0.8015307188034058,0.13640300929546356,-0.4038650095462799,0.4193277955055237,-10.67907485123884,-49.62451558268343,60.181878711694786,7.111472129821777,-1.133325457572937,5.9611053466796875,1.7138581275939941,-1.0339847803115845,1.1038529872894287
2026-04-02 12:56:48.996,1550.001526192,286913618,right_foot,右脚,D4:22:CD:00:85:22,0.8015589118003845,0.13638116419315338,-0.4038468897342682,0.41929829120635986,-10.67738547270511,-49.62163793426575,60.175799343466295,7.0948286056518555,-1.1358788013458252,5.982562065124512,1.6704570055007935,-0.9801148772239685,1.0950101613998413
2026-04-02 12:56:49.026,1550.031315325,286946952,right_foot,右脚,D4:22:CD:00:85:22,0.8015705347061157,0.1363615244626999,-0.40383464097976685,0.4192942976951599,-10.678172919045311,-49.61917630389304,60.174756474746395,7.097079277038574,-1.1083447933197021,5.9892964363098145,1.6854791641235352,-1.0061118602752686,1.1660600900650024
2026-04-02 12:56:49.056,1550.061560296,286980286,right_foot,右脚,D4:22:CD:00:85:22,0.8015964031219482,0.1363351196050644,-0.40382030606269836,0.4192672073841095,-10.677677560521387,-49.61638174777888,60.16964997639722,7.106376647949219,-1.1266202926635742,5.997175693511963,1.6815732717514038,-0.9896684885025024,1.133941650390625
2026-04-02 12:56:49.086,1550.091631234,287013620,right_foot,右脚,D4:22:CD:00:85:22,0.8016087412834167,0.13630588352680206,-0.40382692217826843,0.4192470908164978,-10.680437817552656,-49.61552884151331,60.167855659870824,7.112349987030029,-1.1310560703277588,5.983827114105225,1.630760669708252,-1.05461585521698,1.1620033979415894
2026-04-02 12:56:49.146,1550.151372092,287046954,right_foot,右脚,D4:22:CD:00:85:22,0.8016034960746765,0.13629966974258423,-0.40382900834083557,0.41925695538520813,-10.682274212895218,-49.61523691709155,60.1700924628358,7.10549259185791,-1.1181366443634033,5.977789878845215,1.6834238767623901,-1.0745041370391846,1.1787253618240356
2026-04-02 12:56:49.176,1550.181591635,287080288,right_foot,右脚,D4:22:CD:00:85:22,0.8016278743743896,0.13628438115119934,-0.40380603075027466,0.41923749446868896,-10.680041163747319,-49.612114955784364,60.16508412624039,7.101607322692871,-1.1303702592849731,5.97274112701416,1.6921380758285522,-0.973154604434967,1.102738857269287
2026-04-02 12:56:49.206,1550.211425062,287113622,right_foot,右脚,D4:22:CD:00:85:22,0.8016558289527893,0.13625475764274597,-0.4037953019142151,0.4192039668560028,-10.679823597346424,-49.60958805333315,60.15929239829797,7.100220203399658,-1.132780909538269,5.983155250549316,1.6388638019561768,-0.9919029474258423,1.1045572757720947
2026-04-02 12:56:49.236,1550.241512208,287146956,right_foot,右脚,D4:22:CD:00:85:22,0.8016751408576965,0.13623057305812836,-0.40379759669303894,0.4191727936267853,-10.680558527244827,-49.60874236451112,60.154905907882785,7.103089809417725,-1.1375656127929688,5.976280689239502,1.645484447479248,-1.045939326286316,1.1245990991592407
2026-04-02 12:56:49.266,1550.271439362,287180290,right_foot,右脚,D4:22:CD:00:85:22,0.8017123341560364,0.13617944717407227,-0.403744101524353,0.41916990280151367,-10.68082754336146,-49.599949759851754,60.15152811098888,7.096467018127441,-1.1238206624984741,5.962721824645996,1.68719482421875,-0.8155596256256104,1.1891367435455322
2026-04-02 12:56:49.296,1550.301486204,287213624,right_foot,右脚,D4:22:CD:00:85:22,0.8017411828041077,0.1361447274684906,-0.40372583270072937,0.41914331912994385,-10.680996755848454,-49.59622234140938,60.146507800155874,7.095806121826172,-1.1259125471115112,5.998314380645752,1.667306661605835,-0.9611548781394958,1.1451148986816406
2026-04-02 12:56:49.326,1550.331471651,287246958,right_foot,右脚,D4:22:CD:00:85:22,0.8017511367797852,0.1361376792192459,-0.4037128686904907,0.41913914680480957,-10.680099314946771,-49.59446740722167,60.14483917123772,7.102962493896484,-1.132417917251587,5.9673895835876465,1.6990858316421509,-1.0190974473953247,1.1330643892288208
2026-04-02 12:56:49.356,1550.361299462,287280292,right_foot,右脚,D4:22:CD:00:85:22,0.8017640709877014,0.13613097369670868,-0.40370798110961914,0.4191210865974426,-10.678918592796625,-49.593777773564014,60.14142563099542,7.105642318725586,-1.133606195449829,5.9799113273620605,1.7104769945144653,-1.0505625009536743,1.1306054592132568
2026-04-02 12:56:49.386,1550.391274492,287313626,right_foot,右脚,D4:22:CD:00:85:22,0.8017714619636536,0.13611547648906708,-0.403713583946228,0.4191068708896637,-10.680319319019297,-49.59359290203374,60.14002686628371,7.100329875946045,-1.1236439943313599,5.98850679397583,1.6907232999801636,-1.0741838216781616,1.1760872602462769
2026-04-02 12:56:49.446,1550.451386682,287346960,right_foot,右脚,D4:22:CD:00:85:22,0.801765501499176,0.13611754775047302,-0.40371909737586975,0.41911226511001587,-10.681116182117778,-49.594233631923544,60.14142533602018,7.107880115509033,-1.1268529891967773,5.982412815093994,1.6945843696594238,-1.0959995985031128,1.1585745811462402
2026-04-02 12:56:49.477,1550.482211905,287380294,right_foot,右脚,D4:22:CD:00:85:22,0.8017702102661133,0.13611562550067902,-0.40373629331588745,0.41908738017082214,-10.681216147949655,-49.5962622604948,60.138631844886255,7.109511852264404,-1.1257261037826538,5.99448823928833,1.691465973854065,-1.133163571357727,1.131130576133728
2026-04-02 12:56:49.506,1550.511294146,287413628,right_foot,右脚,D4:22:CD:00:85:22,0.8017745614051819,0.13611191511154175,-0.4037359058856964,0.4190806448459625,-10.68108595771348,-49.59608032681123,60.13753931461873,7.103310585021973,-1.1328967809677124,5.963885307312012,1.6950966119766235,-1.067217230796814,1.140991449356079
2026-04-02 12:56:49.536,1550.541441389,287446962,right_foot,右脚,D4:22:CD:00:85:22,0.8017844557762146,0.13610242307186127,-0.40374326705932617,0.41905757784843445,-10.681203999401239,-49.596578904188156,60.134480766815706,7.098555564880371,-1.1331549882888794,5.98151969909668,1.6832443475723267,-1.0861387252807617,1.1329299211502075
2026-04-02 12:56:49.566,1550.57162615,287480296,right_foot,右脚,D4:22:CD:00:85:22,0.8018012046813965,0.13611473143100739,-0.4037269651889801,0.4190373420715332,-10.676164411622047,-49.595882722098544,60.12880333562961,7.119984149932861,-1.1211289167404175,5.969265937805176,1.7383885383605957,-1.0352014303207397,1.0577245950698853
2026-04-02 12:56:49.596,1550.6013661,287513630,right_foot,右脚,D4:22:CD:00:85:22,0.8018341660499573,0.13608881831169128,-0.403713196516037,0.4189958870410919,-10.674490671056324,-49.59337014516491,60.121153124611794,7.10250186920166,-1.1335488557815552,5.968175888061523,1.6724803447723389,-0.9864986538887024,1.09834623336792
2026-04-02 12:56:49.626,1550.631498548,287546964,right_foot,右脚,D4:22:CD:00:85:22,0.8018473982810974,0.1360769271850586,-0.4037000238895416,0.4189872145652771,-10.673811681518151,-49.59135246291481,60.118859239335166,7.114177703857422,-1.1238820552825928,5.981223106384277,1.7139027118682861,-1.0120795965194702,1.154617428779602
2026-04-02 12:56:49.656,1550.661477278,287580298,right_foot,右脚,D4:22:CD:00:85:22,0.8018669486045837,0.13604407012462616,-0.4037003219127655,0.4189600348472595,-10.675759102575707,-49.589710916770024,60.115381367288755,7.107413291931152,-1.128232717514038,5.9773783683776855,1.6460227966308594,-1.024450421333313,1.1607325077056885
2026-04-02 12:56:49.686,1550.691472443,287613632,right_foot,右脚,D4:22:CD:00:85:22,0.8018683791160583,0.13602228462696075,-0.4036960005760193,0.4189683794975281,-10.678724181568406,-49.58779646975988,60.117396656077716,7.110599994659424,-1.1263188123703003,5.963622093200684,1.6275620460510254,-1.0173299312591553,1.1718225479125977
2026-04-02 12:56:49.746,1550.751410492,287646966,right_foot,右脚,D4:22:CD:00:85:22,0.801875114440918,0.1360069364309311,-0.4036996364593506,0.41895705461502075,-10.680131500923999,-49.58737863741766,60.11633752554313,7.094088077545166,-1.1289026737213135,5.9917707443237305,1.651695966720581,-1.0581247806549072,1.14548659324646
2026-04-02 12:56:49.776,1550.781591001,287680300,right_foot,右脚,D4:22:CD:00:85:22,0.8018590807914734,0.13601744174957275,-0.40372219681739807,0.4189627170562744,-10.681774653433662,-49.5903393176426,60.11901308486599,7.104394435882568,-1.1345404386520386,5.971923828125,1.6697721481323242,-1.1612800359725952,1.1466326713562012
2026-04-02 12:56:49.806,1550.81148155,287713634,right_foot,右脚,D4:22:CD:00:85:22,0.8018724918365479,0.1359885334968567,-0.4036938548088074,0.41897374391555786,-10.683187485623515,-49.58540332533091,60.119562539525134,7.100442886352539,-1.1261110305786133,5.9872236251831055,1.6195068359375,-0.9197199940681458,1.1432323455810547
2026-04-02 12:56:49.836,1550.841171021,287746968,right_foot,右脚,D4:22:CD:00:85:22,0.8018935322761536,0.13595610857009888,-0.4036555588245392,0.4189808666706085,-10.68361753955829,-49.57924859180032,60.11863107860444,7.10051155090332,-1.1268301010131836,5.983091831207275,1.669752836227417,-0.8865707516670227,1.1676477193832397
2026-04-02 12:56:49.866,1550.871506744,287780302,right_foot,右脚,D4:22:CD:00:85:22,0.801903247833252,0.13592135906219482,-0.4036496877670288,0.4189791679382324,-10.687216683255357,-49.57649776401815,60.11923261758464,7.1148552894592285,-1.1183180809020996,5.982065200805664,1.6150057315826416,-0.9932029247283936,1.182727336883545
2026-04-02 12:56:49.896,1550.90139239,287813636,right_foot,右脚,D4:22:CD:00:85:22,0.8019145131111145,0.1359020620584488,-0.4036581516265869,0.4189557433128357,-10.688663422309675,-49.57650763490238,60.11661618918166,7.110632419586182,-1.1274882555007935,5.977591037750244,1.6216394901275635,-1.0652579069137573,1.1196880340576172
2026-04-02 12:56:49.926,1550.931526115,287846970,right_foot,右脚,D4:22:CD:00:85:22,0.8019055724143982,0.13588495552539825,-0.4036853015422821,0.41895219683647156,-10.693550142103332,-49.578368447733126,60.119225614573914,7.095168590545654,-1.1258245706558228,5.970832824707031,1.611599326133728,-1.134034514427185,1.18673574924469
2026-04-02 12:56:49.956,1550.961267635,287880304,right_foot,右脚,D4:22:CD:00:85:22,0.8019042611122131,0.13587923347949982,-0.40371665358543396,0.41892650723457336,-10.695634972927767,-49.58166881586351,60.11776222991664,7.100005626678467,-1.137709140777588,5.96255350112915,1.6374874114990234,-1.1673821210861206,1.1310665607452393
2026-04-02 12:56:49.986,1550.991468839,287913638,right_foot,右脚,D4:22:CD:00:85:22,0.8018928170204163,0.1358746439218521,-0.40375038981437683,0.41891732811927795,-10.699208742490859,-49.585076862202605,60.119451398305486,7.108744144439697,-1.1313257217407227,5.976402282714844,1.633735179901123,-1.1764490604400635,1.1639916896820068
2026-04-02 12:56:50.046,1551.05134405,287946972,right_foot,右脚,D4:22:CD:00:85:22,0.8018893599510193,0.1358634978532791,-0.40376541018486023,0.418913334608078,-10.701950677711395,-49.58602373977724,60.12058847235224,7.104686260223389,-1.1319284439086914,5.990405559539795,1.627927303314209,-1.0986568927764893,1.152043342590332
2026-04-02 12:56:50.076,1551.081345029,287980306,right_foot,右脚,D4:22:CD:00:85:22,0.8018848299980164,0.13588587939739227,-0.4037560820579529,0.41892316937446594,-10.698911592202476,-49.586303767731344,60.12057651717593,7.106725215911865,-1.1273912191390991,5.996412754058838,1.7318764925003052,-1.0678960084915161,1.0972130298614502
2026-04-02 12:56:50.136,1551.141552372,288013640,right_foot,右脚,D4:22:CD:00:85:22,0.8018936514854431,0.13588550686836243,-0.40374264121055603,0.4189196228981018,-10.697165570505225,-49.5849005638801,60.11868983679334,7.112937927246094,-1.1381077766418457,5.983440399169922,1.6825590133666992,-1.0167921781539917,1.0981796979904175
2026-04-02 12:56:50.136,1551.141666778,288046974,right_foot,右脚,D4:22:CD:00:85:22,0.801904559135437,0.13589581847190857,-0.40370699763298035,0.4189297556877136,-10.692737033544507,-49.58163355994152,60.11675775054381,7.110539436340332,-1.1348944902420044,5.971696853637695,1.7593462467193604,-0.9610270261764526,1.1054922342300415
2026-04-02 12:56:50.166,1551.171366659,288080308,right_foot,右脚,D4:22:CD:00:85:22,0.8019213080406189,0.1358751505613327,-0.40369144082069397,0.4189193844795227,-10.692765185293162,-49.57884477709912,60.11430824432926,7.097128391265869,-1.1315754652023315,5.97310209274292,1.6245207786560059,-0.9744736552238464,1.102143406867981
2026-04-02 12:56:50.196,1551.201508581,288113642,right_foot,右脚,D4:22:CD:00:85:22,0.8019219040870667,0.13590635359287262,-0.40369200706481934,0.41890764236450195,-10.68791566558093,-49.580991951162986,60.11094323933431,7.0985565185546875,-1.1421127319335938,5.989715099334717,1.7388046979904175,-1.1149529218673706,1.0477932691574097
2026-04-02 12:56:50.226,1551.231487848,288146976,right_foot,右脚,D4:22:CD:00:85:22,0.8019384741783142,0.1358853429555893,-0.40367764234542847,0.4188966453075409,-10.688066529177584,-49.57831497955503,60.108503883259075,7.117343425750732,-1.121315836906433,5.978443145751953,1.6693878173828125,-0.9854359030723572,1.142438530921936
2026-04-02 12:56:50.256,1551.261529527,288180310,right_foot,右脚,D4:22:CD:00:85:22,0.8019543886184692,0.1358296275138855,-0.4036697745323181,0.4188917577266693,-10.693831516587135,-49.57409752581996,60.10922474364087,7.100872039794922,-1.1196980476379395,5.982551097869873,1.5847440958023071,-0.953176736831665,1.2216585874557495
2026-04-02 12:56:50.286,1551.291442179,288213644,right_foot,右脚,D4:22:CD:00:85:22,0.801961362361908,0.13579924404621124,-0.4036600589752197,0.41889747977256775,-10.697066381596487,-49.57111435786766,60.11062407416303,7.086818218231201,-1.1349248886108398,5.986283302307129,1.6512669324874878,-0.9879075884819031,1.2067456245422363
2026-04-02 12:56:50.346,1551.351645513,288246978,right_foot,右脚,D4:22:CD:00:85:22,0.8019703030586243,0.13574756681919098,-0.40366989374160767,0.4188876450061798,-10.703877205502403,-49.56908421642909,60.11193207857117,7.099038124084473,-1.1388472318649292,5.96934175491333,1.5846226215362549,-1.0225615501403809,1.2356815338134766
2026-04-02 12:56:50.376,1551.381513808,288280312,right_foot,右脚,D4:22:CD:00:85:22,0.8019845485687256,0.13571859896183014,-0.40364378690719604,0.4188949167728424,-10.705235982016205,-49.564431272529745,60.11201693219245,7.105045795440674,-1.1394091844558716,5.97097110748291,1.6577852964401245,-0.9304966330528259,1.1740189790725708
2026-04-02 12:56:50.407,1551.412347859,288313646,right_foot,右脚,D4:22:CD:00:85:22,0.8019911050796509,0.1357019990682602,-0.4036450684070587,0.4188864529132843,-10.706779569216105,-49.56365201669028,60.111311501656076,7.1006059646606445,-1.1341396570205688,5.981622219085693,1.6666152477264404,-1.046682357788086,1.1647214889526367
2026-04-02 12:56:50.496,1551.501625812,288346980,right_foot,右脚,D4:22:CD:00:85:22,0.802001416683197,0.1357019543647766,-0.40364784002304077,0.41886404156684875,-10.705247187267526,-49.564240149629114,60.10754539187903,7.098695755004883,-1.1341991424560547,5.9641194343566895,1.6664808988571167,-1.0722246170043945,1.0792713165283203
2026-04-02 12:56:50.496,1551.501727061,288380314,right_foot,右脚,D4:22:CD:00:85:22,0.8020062446594238,0.1357087790966034,-0.4036616384983063,0.41883939504623413,-10.703884318833902,-49.56644778380125,60.104112341182635,7.105289459228516,-1.126936435699463,5.976080894470215,1.6746768951416016,-1.121913194656372,1.0816084146499634
2026-04-02 12:56:50.526,1551.531314104,288413648,right_foot,右脚,D4:22:CD:00:85:22,0.8020075559616089,0.1357281357049942,-0.4036603569984436,0.418832004070282,-10.70068336464053,-49.56760606933481,60.10184898792109,7.107159614562988,-1.1265002489089966,5.978072643280029,1.7161697149276733,-1.0883349180221558,1.0753397941589355
2026-04-02 12:56:50.526,1551.531421339,288446982,right_foot,右脚,D4:22:CD:00:85:22,0.8020143508911133,0.13571910560131073,-0.4036638140678406,0.41881856322288513,-10.701101506722939,-49.56759135098959,60.10013442204509,7.106353282928467,-1.1237140893936157,5.981141090393066,1.6566712856292725,-1.0614800453186035,1.1239078044891357
2026-04-02 12:56:50.586,1551.59153807,288480316,right_foot,右脚,D4:22:CD:00:85:22,0.8020167946815491,0.13569027185440063,-0.4036917984485626,0.4187961518764496,-10.706008949819037,-49.56906592616585,60.09992392292373,7.101373195648193,-1.13083016872406,5.97457218170166,1.5724053382873535,-1.1130127906799316,1.1580430269241333
2026-04-02 12:56:50.586,1551.591697669,288513650,right_foot,右脚,D4:22:CD:00:85:22,0.8020198345184326,0.13569752871990204,-0.4036969244480133,0.41878312826156616,-10.704585968416863,-49.570228822885454,60.09775394295445,7.10631799697876,-1.1302412748336792,5.99012565612793,1.7089468240737915,-1.0952311754226685,1.115365982055664
2026-04-02 12:56:50.646,1551.651366954,288546984,right_foot,右脚,D4:22:CD:00:85:22,0.8020310997962952,0.1356828659772873,-0.4036862552165985,0.41877657175064087,-10.70471396706482,-49.568279207638994,60.09619579282975,7.0973405838012695,-1.1247847080230713,5.984296798706055,1.6961787939071655,-1.0091596841812134,1.1611742973327637
2026-04-02 12:56:50.676,1551.681504331,288580318,right_foot,右脚,D4:22:CD:00:85:22,0.8020351529121399,0.13567277789115906,-0.4036768674850464,0.4187809228897095,-10.70530980851316,-49.56660732112143,60.096534019540485,7.112866401672363,-1.1234008073806763,5.976621627807617,1.6932909488677979,-1.018796443939209,1.1685441732406616
2026-04-02 12:56:50.706,1551.711675867,288613652,right_foot,右脚,D4:22:CD:00:85:22,0.802045464515686,0.1356450617313385,-0.40365442633628845,0.41879168152809143,-10.707208393796774,-49.56237565596637,60.097539847828585,7.115180969238281,-1.1195999383926392,5.975028038024902,1.6706300973892212,-0.9459283947944641,1.197371482849121
2026-04-02 12:56:50.736,1551.741448571,288646986,right_foot,右脚,D4:22:CD:00:85:22,0.8020575642585754,0.13562993705272675,-0.4036496877670288,0.41877830028533936,-10.70748246429766,-49.56110905506497,60.09531199675637,7.10520076751709,-1.1229366064071655,5.98130989074707,1.665635585784912,-1.024405598640442,1.1362979412078857
2026-04-02 12:56:50.766,1551.771392063,288680320,right_foot,右脚,D4:22:CD:00:85:22,0.8020642399787903,0.13563168048858643,-0.4036380350589752,0.4187760353088379,-10.70578555316461,-49.56001691786886,60.093753711229795,7.098024368286133,-1.1261695623397827,5.977238178253174,1.7283354997634888,-1.0298163890838623,1.1380012035369873
2026-04-02 12:56:50.796,1551.801516728,288713654,right_foot,右脚,D4:22:CD:00:85:22,0.8020727634429932,0.13563163578510284,-0.4036315679550171,0.4187660217285156,-10.704246799282028,-49.55946153107318,60.09135166619328,7.109438896179199,-1.134123682975769,5.978050231933594,1.7085528373718262,-1.0433142185211182,1.1228033304214478
2026-04-02 12:56:50.826,1551.831598264,288746988,right_foot,右脚,D4:22:CD:00:85:22,0.8020856380462646,0.1356048583984375,-0.4036214351654053,0.41875991225242615,-10.705998947948135,-49.556810262292224,60.09042478175147,7.108975410461426,-1.1196510791778564,5.978443145751953,1.6601289510726929,-0.9891049861907959,1.176586627960205
2026-04-02 12:56:50.856,1551.861637832,288780322,right_foot,右脚,D4:22:CD:00:85:22,0.8020926713943481,0.13558107614517212,-0.403615802526474,0.41875964403152466,-10.708354262752179,-49.55474385288331,60.090842667281045,7.101089954376221,-1.1238901615142822,5.9810686111450195,1.6743438243865967,-1.0115993022918701,1.2011940479278564
